Speed,Voice,Acceleration X,Acceleration Y,Acceleration Z,Gyro X,Gyro Y,Gyro Z,Temperature,Speed_Range
100.0,1023.0,-0.1,-0.03,9.77,0.03,-0.02,-0.04,18.14,100.0-110.0
100.0,1354.0,-0.12,-0.01,9.78,0.07,-0.02,0.04,18.13,100.0-110.0
100.0,1115.0,-0.09,-0.02,9.78,0.06,0.06,0.01,18.13,100.0-110.0
100.0,1619.0,-0.09,-0.02,9.81,0.12,0.08,0.01,18.13,100.0-110.0
100.0,1514.0,-0.11,-0.02,9.82,0.18,0.11,-0.01,18.14,100.0-110.0
100.0,1287.0,-0.08,-0.03,9.8,0.19,0.03,-0.07,18.14,100.0-110.0
100.0,1882.0,-0.11,-0.01,9.81,0.1,-0.05,-0.05,18.14,100.0-110.0
100.0,756.0,-0.08,-0.0,9.79,0.09,0.05,-0.01,18.13,100.0-110.0
100.0,1319.0,-0.1,0.0,9.79,0.04,-0.0,-0.07,18.12,100.0-110.0
100.0,1499.0,-0.1,0.0,9.82,0.04,0.01,-0.01,18.1,100.0-110.0
100.0,1266.0,-0.13,-0.05,9.75,0.15,0.03,0.02,18.12,100.0-110.0
100.0,1185.0,-0.08,-0.03,9.83,0.01,-0.08,-0.1,18.15,100.0-110.0
100.0,943.0,-0.11,-0.03,9.8,0.04,-0.06,-0.02,18.12,100.0-110.0
100.0,2928.0,3.23,-0.39,11.51,-0.92,2.53,-2.82,18.09,100.0-110.0
100.0,1697.0,0.87,8.27,14.49,7.3,-18.63,7.51,18.1,100.0-110.0
100.0,176.0,-4.03,-6.88,5.54,-3.29,21.04,-7.0,18.09,100.0-110.0
100.0,0.0,2.67,-3.27,12.1,-5.68,3.72,-5.58,18.1,100.0-110.0
100.0,2138.0,-1.72,8.04,15.05,6.68,-16.91,5.5,18.11,100.0-110.0
100.0,0.0,-0.84,4.2,8.68,4.71,-3.4,5.03,18.1,100.0-110.0
100.0,290.0,3.19,-5.91,9.63,-8.03,1.77,-7.48,18.09,100.0-110.0
100.0,1756.0,-3.71,7.52,12.53,5.53,-6.3,3.85,18.1,100.0-110.0
100.0,2095.0,3.27,6.97,12.07,9.13,-7.52,8.37,18.11,100.0-110.0
100.0,1430.0,-1.19,-3.72,9.4,-4.08,-4.21,1.0,18.1,100.0-110.0
100.0,874.0,4.62,2.11,9.59,3.49,9.02,-0.76,18.1,100.0-110.0
100.0,2927.0,3.32,9.83,19.21,5.95,-30.27,10.51,18.1,100.0-110.0
100.0,0.0,-8.38,5.06,4.75,6.74,0.46,5.91,18.09,100.0-110.0
100.0,853.0,8.69,-9.91,4.09,-2.51,23.3,-6.16,18.09,100.0-110.0
100.0,2559.0,-6.51,10.03,8.38,5.95,-8.03,4.83,18.1,100.0-110.0
100.0,1587.0,12.19,7.53,13.47,12.23,-12.09,8.43,18.11,100.0-110.0
100.0,0.0,-8.38,1.95,5.0,-0.95,-13.15,2.19,18.09,100.0-110.0
100.0,2928.0,3.51,-10.54,-2.88,-1.3,46.77,-9.76,18.11,100.0-110.0
100.0,1978.0,-8.11,11.07,13.41,0.44,-36.99,8.11,18.08,100.0-110.0
100.0,0.0,6.79,6.76,6.82,16.44,9.98,7.39,18.09,100.0-110.0
100.0,0.0,-0.82,1.24,7.6,-1.38,-17.46,4.19,18.09,100.0-110.0
100.0,2384.0,-2.8,-8.57,-4.44,-0.95,46.36,-7.35,18.09,100.0-110.0
100.0,2928.0,-3.47,9.47,14.0,-1.03,-41.96,7.84,18.11,100.0-110.0
100.0,266.0,4.04,8.7,8.09,16.99,6.26,7.56,18.1,100.0-110.0
100.0,0.0,-1.63,4.61,6.82,3.2,-15.99,5.7,18.09,100.0-110.0
100.0,2927.0,-1.09,-6.98,-2.06,1.31,44.75,-6.63,18.12,100.0-110.0
100.0,1389.0,-2.3,7.7,10.42,-1.09,-31.63,4.31,18.1,100.0-110.0
100.0,1575.0,6.66,10.83,15.41,14.58,-9.03,8.49,18.09,100.0-110.0
100.0,1362.0,-8.69,8.61,5.23,7.4,-12.51,7.82,18.1,100.0-110.0
100.0,478.0,4.09,-5.17,2.65,3.95,38.94,-3.58,18.07,100.0-110.0
100.0,2928.0,-1.78,3.05,7.67,-0.91,-13.44,0.91,18.07,100.0-110.0
100.0,2613.0,8.44,11.69,20.14,10.75,-24.12,8.81,18.09,100.0-110.0
100.0,0.0,-11.03,10.96,2.92,11.62,-4.55,7.8,18.09,100.0-110.0
100.0,0.0,5.2,-4.38,10.57,1.96,14.54,0.6,18.09,100.0-110.0
100.0,2928.0,-2.1,-5.75,14.8,-5.86,1.07,-5.24,18.09,100.0-110.0
100.0,361.0,4.98,8.89,18.56,3.49,-42.1,10.12,18.09,100.0-110.0
100.0,0.0,0.68,14.39,2.11,22.53,5.2,11.01,18.1,100.0-110.0
100.0,0.0,-3.1,4.64,7.62,3.31,-3.4,4.71,18.11,100.0-110.0
100.0,2925.0,6.17,-10.08,18.86,-8.61,5.34,-8.45,18.1,100.0-110.0
100.0,2288.0,-1.42,6.01,12.11,-3.93,-37.37,3.79,18.09,100.0-110.0
100.0,0.0,6.46,12.3,15.74,17.02,-12.05,10.12,18.11,100.0-110.0
100.0,542.0,-9.76,12.68,0.3,13.12,-1.68,8.66,18.09,100.0-110.0
100.0,2928.0,5.22,-13.55,20.78,-15.57,-2.64,-10.4,18.09,100.0-110.0
100.0,2928.0,-1.9,0.01,9.9,-3.23,-10.5,-2.22,18.08,100.0-110.0
100.0,1793.0,6.47,10.46,21.28,5.53,-36.03,8.2,18.09,100.0-110.0
100.0,2077.0,-5.76,13.26,-0.18,19.11,3.74,10.0,18.06,100.0-110.0
100.0,1316.0,-2.22,-12.33,10.21,-18.77,-1.65,-10.81,18.09,100.0-110.0
100.0,2730.0,3.24,-9.69,18.52,-7.1,3.13,-7.07,18.07,100.0-110.0
100.0,0.0,1.41,8.6,12.68,0.45,-40.22,7.13,18.07,100.0-110.0
100.0,2641.0,4.88,13.35,9.82,19.57,-0.98,10.63,18.09,100.0-110.0
100.0,0.0,-5.26,-10.96,-2.31,-11.05,23.47,-8.84,18.06,100.0-110.0
100.0,2927.0,6.29,-13.76,21.73,-14.32,-1.19,-10.35,18.08,100.0-110.0
100.0,2161.0,-2.32,2.97,9.11,-2.65,-21.84,0.79,18.07,100.0-110.0
100.0,1379.0,7.18,11.6,20.26,10.9,-23.68,9.42,18.07,100.0-110.0
100.0,0.0,-2.03,-9.92,-0.97,-3.35,40.92,-7.8,18.07,100.0-110.0
100.0,2928.0,0.16,-13.48,16.6,-18.85,-3.49,-11.19,18.07,100.0-110.0
100.0,2927.0,0.93,-4.79,12.46,-4.55,-0.57,-5.27,18.09,100.0-110.0
100.0,2321.0,4.34,9.68,18.1,2.09,-40.79,7.87,18.09,100.0-110.0
100.0,0.0,4.18,-6.2,6.09,1.72,36.09,-3.52,18.09,100.0-110.0
100.0,2927.0,-6.15,-11.23,4.72,-16.74,9.52,-10.15,18.1,100.0-110.0
100.0,2928.0,5.9,-11.74,19.79,-8.99,3.68,-8.49,18.09,100.0-110.0
100.0,1998.0,-0.8,7.57,9.91,-0.2,-34.84,5.33,18.07,100.0-110.0
100.0,566.0,6.26,-2.25,9.49,2.99,13.27,1.56,18.09,100.0-110.0
100.0,1991.0,-5.88,-9.5,-3.84,-8.6,30.33,-9.06,18.1,100.0-110.0
100.0,2755.0,5.54,-14.03,22.32,-15.42,-2.12,-11.16,18.08,100.0-110.0
100.0,662.0,-2.9,2.49,7.91,-2.07,-15.35,0.21,18.09,100.0-110.0
100.0,2365.0,0.11,3.49,7.54,3.66,-5.77,5.1,18.09,100.0-110.0
100.0,0.0,-1.35,-8.99,-1.84,-2.22,42.69,-6.72,18.07,100.0-110.0
100.0,2928.0,-0.95,-13.17,17.83,-18.58,-4.52,-10.25,18.1,100.0-110.0
100.0,2913.0,1.73,-4.25,10.49,-3.51,3.48,-4.68,18.07,100.0-110.0
100.0,563.0,-8.12,9.34,3.57,8.66,-8.06,7.76,18.07,100.0-110.0
100.0,0.0,3.77,-6.17,4.44,2.24,38.85,-4.23,18.07,100.0-110.0
100.0,2928.0,-5.95,-11.46,7.22,-17.77,3.89,-10.66,18.08,100.0-110.0
100.0,2928.0,6.1,-11.14,17.89,-8.21,6.41,-8.86,18.1,100.0-110.0
100.0,1405.0,-10.84,11.28,2.15,13.16,-1.63,8.58,18.1,100.0-110.0
100.0,606.0,6.38,-2.74,8.4,3.24,18.68,1.15,18.09,100.0-110.0
100.0,2928.0,-6.41,-9.72,-3.13,-9.71,26.38,-8.63,18.08,100.0-110.0
100.0,2854.0,5.54,-14.64,22.64,-15.89,-2.52,-10.44,18.09,100.0-110.0
100.0,1520.0,-2.11,12.13,4.26,17.42,1.98,9.62,18.09,100.0-110.0
100.0,1487.0,0.02,3.11,7.17,4.43,-2.27,5.49,18.07,100.0-110.0
100.0,2590.0,-1.9,-8.65,-1.95,-1.56,43.9,-7.04,18.07,100.0-110.0
100.0,2928.0,-0.62,-13.48,17.28,-19.64,-7.68,-11.15,18.07,100.0-110.0
100.0,2069.0,6.37,12.69,14.28,16.9,-7.72,9.1,18.08,100.0-110.0
100.0,1936.0,-10.45,9.45,4.5,8.39,-8.1,7.71,18.08,100.0-110.0
100.0,0.0,5.05,-5.91,5.43,2.71,37.09,-3.06,18.11,100.0-110.0
100.0,2928.0,-5.96,-10.37,3.63,-15.95,8.8,-10.29,18.09,100.0-110.0
100.0,1746.0,7.09,12.2,20.24,10.23,-27.45,9.96,18.08,100.0-110.0
100.0,669.0,-9.98,11.68,1.91,13.51,-0.89,9.01,18.09,100.0-110.0
100.0,0.0,6.57,-2.74,9.35,2.15,13.37,1.5,18.06,100.0-110.0
100.0,2928.0,-6.01,-9.09,-4.35,-7.19,31.95,-8.25,18.08,100.0-110.0
100.0,2428.0,3.77,9.95,17.24,2.92,-40.28,8.6,18.08,100.0-110.0
100.0,1610.0,-1.15,12.04,4.08,18.26,2.81,8.87,18.09,100.0-110.0
100.0,635.0,0.05,2.65,7.91,2.86,-5.28,4.48,18.06,100.0-110.0
100.0,2927.0,-1.04,-8.32,-2.5,-0.89,42.71,-6.69,18.1,100.0-110.0
100.0,2928.0,-0.92,7.96,11.11,-0.88,-34.53,5.17,18.07,100.0-110.0
100.0,2593.0,5.81,11.59,12.28,16.82,-4.33,8.95,18.08,100.0-110.0
100.0,0.0,-8.53,8.15,4.73,6.63,-9.64,7.26,18.09,100.0-110.0
100.0,2927.0,3.78,-6.79,3.75,1.47,39.75,-4.3,18.09,100.0-110.0
100.0,2927.0,-1.68,4.35,7.25,-1.0,-17.35,1.59,18.09,100.0-110.0
100.0,1459.0,7.69,11.17,19.72,11.39,-19.36,9.0,18.09,100.0-110.0
100.0,2064.0,-12.92,10.32,3.41,10.98,-3.86,8.2,18.09,100.0-110.0
100.0,2928.0,7.87,-4.21,8.04,3.37,23.5,-0.74,18.09,100.0-110.0
100.0,2352.0,0.03,-1.32,8.55,-1.38,1.07,-2.74,18.09,100.0-110.0
100.0,2774.0,6.27,10.87,20.14,6.49,-33.8,8.98,18.1,100.0-110.0
100.0,1969.0,-8.39,11.22,3.61,15.04,2.7,8.37,18.11,100.0-110.0
100.0,0.0,5.74,-1.07,8.74,2.15,1.98,3.17,18.09,100.0-110.0
100.0,2928.0,4.21,-7.61,13.82,-5.73,6.33,-6.49,18.09,100.0-110.0
100.0,1433.0,2.49,9.6,14.99,1.64,-39.28,7.93,18.06,100.0-110.0
100.0,817.0,1.06,11.37,6.93,17.6,2.27,8.52,18.09,100.0-110.0
100.0,331.0,-1.46,3.82,6.26,3.14,-9.11,5.12,18.11,100.0-110.0
100.0,2927.0,7.04,-11.99,19.33,-10.12,4.52,-9.57,18.09,100.0-110.0
100.0,2341.0,-0.94,7.63,9.41,-0.02,-31.65,4.66,18.08,100.0-110.0
100.0,2557.0,6.43,11.05,15.1,14.8,-8.19,8.87,18.09,100.0-110.0
100.0,0.0,-9.92,8.25,5.01,7.76,-10.99,7.79,18.08,100.0-110.0
100.0,2928.0,4.47,-14.5,23.59,-15.63,-3.24,-10.34,18.09,100.0-110.0
100.0,2927.0,-2.21,3.93,6.73,0.25,-13.25,1.79,18.07,100.0-110.0
100.0,1482.0,7.77,11.58,19.97,10.89,-21.18,9.64,18.07,100.0-110.0
100.0,570.0,-12.71,10.04,4.62,10.29,-5.19,8.05,18.07,100.0-110.0
100.0,2927.0,0.37,-13.26,20.19,-18.87,-8.1,-10.63,18.08,100.0-110.0
100.0,2928.0,0.3,-2.13,9.11,-2.52,1.28,-3.46,18.08,100.0-110.0
100.0,2699.0,4.79,10.84,19.79,6.28,-33.94,8.69,18.09,100.0-110.0
100.0,1294.0,-6.96,11.28,3.45,15.53,1.77,7.85,18.09,100.0-110.0
100.0,1909.0,-4.41,-11.12,12.44,-17.61,-2.87,-10.12,18.09,100.0-110.0
100.0,2928.0,4.6,-7.62,13.29,-5.5,7.05,-6.97,18.11,100.0-110.0
100.0,1856.0,1.71,9.23,15.15,0.8,-37.37,7.35,18.11,100.0-110.0
100.0,624.0,1.16,11.08,7.78,17.33,-0.66,9.19,18.07,100.0-110.0
100.0,2165.0,-7.42,-9.81,2.52,-14.32,12.4,-9.54,18.09,100.0-110.0
100.0,2927.0,7.0,-12.33,19.63,-10.02,4.44,-9.39,18.08,100.0-110.0
100.0,1828.0,-1.12,7.33,9.17,-0.01,-28.38,4.54,18.06,100.0-110.0
100.0,2011.0,5.93,11.56,16.58,14.93,-13.47,9.48,18.07,100.0-110.0
100.0,347.0,-5.73,-9.22,-2.92,-7.28,31.45,-8.38,18.07,100.0-110.0
100.0,2927.0,3.3,-14.81,22.8,-17.22,-4.97,-10.6,18.09,100.0-110.0
100.0,2115.0,-0.5,2.1,7.46,-0.36,-7.13,-0.1,18.07,100.0-110.0
100.0,2513.0,5.91,11.82,21.41,8.33,-31.16,9.59,18.08,100.0-110.0
100.0,0.0,-0.52,-7.74,-0.72,-0.31,44.83,-5.97,18.08,100.0-110.0
100.0,2927.0,-3.15,-13.74,16.13,-20.48,-6.7,-10.87,18.09,100.0-110.0
100.0,2927.0,4.4,-6.61,12.58,-4.78,4.17,-5.32,18.09,100.0-110.0
100.0,1808.0,3.2,10.61,14.72,2.54,-39.02,8.16,18.09,100.0-110.0
100.0,708.0,5.53,-4.45,5.94,3.86,34.41,-2.11,18.09,100.0-110.0
100.0,2927.0,-7.1,-11.08,2.45,-15.48,13.26,-11.44,18.09,100.0-110.0
100.0,2927.0,7.09,-13.63,21.64,-12.76,-1.11,-10.61,18.09,100.0-110.0
100.0,1803.0,-1.16,7.45,7.86,1.12,-25.71,3.56,18.08,100.0-110.0
100.0,748.0,4.54,0.51,7.22,4.14,8.64,2.68,18.08,100.0-110.0
100.0,1088.0,-5.07,-10.24,-2.5,-6.49,39.09,-9.21,18.08,100.0-110.0
100.0,2928.0,1.75,-15.61,21.14,-21.05,-6.99,-11.85,18.08,100.0-110.0
100.0,1499.0,1.52,-2.43,9.95,-2.52,-4.18,-2.1,18.09,100.0-110.0
100.0,930.0,-7.12,8.57,3.3,8.74,-3.45,8.45,18.08,100.0-110.0
100.0,391.0,3.17,-6.76,4.58,1.76,40.24,-3.5,18.1,100.0-110.0
100.0,2926.0,-5.0,-13.16,6.24,-19.67,5.68,-11.34,18.09,100.0-110.0
100.0,2928.0,5.64,-13.29,21.66,-11.86,-2.79,-9.22,18.09,100.0-110.0
100.0,928.0,-8.27,12.07,1.37,16.12,2.94,9.04,18.09,100.0-110.0
100.0,552.0,5.01,0.28,6.57,4.95,11.29,2.85,18.07,100.0-110.0
100.0,2928.0,-4.62,-11.12,-2.22,-7.5,40.73,-9.99,18.09,100.0-110.0
100.0,2928.0,1.25,-16.15,21.96,-23.09,-13.4,-12.29,18.09,100.0-110.0
100.0,2511.0,2.54,13.49,12.92,17.15,-3.54,9.91,18.07,100.0-110.0
100.0,1718.0,-9.77,8.87,4.0,9.27,-2.96,9.06,18.08,100.0-110.0
100.0,68.0,5.39,-5.99,5.03,3.43,40.36,-2.27,18.07,100.0-110.0
100.0,2928.0,-5.26,-12.16,2.97,-17.9,8.99,-11.47,18.08,100.0-110.0
100.0,2905.0,6.18,14.22,16.86,10.51,-28.08,9.64,18.09,100.0-110.0
100.0,44.0,-5.61,12.28,2.71,16.86,3.91,8.57,18.08,100.0-110.0
100.0,0.0,0.62,0.86,7.13,3.93,7.09,3.85,18.09,100.0-110.0
100.0,2928.0,-1.12,-10.17,-0.56,-2.2,42.02,-7.64,18.08,100.0-110.0
100.0,2928.0,0.85,10.4,7.22,4.68,-30.27,6.43,18.09,100.0-110.0
100.0,624.0,3.83,14.6,15.24,17.56,-6.13,10.52,18.08,100.0-110.0
100.0,2355.0,-10.51,10.45,3.36,10.57,-0.92,9.36,18.09,100.0-110.0
100.0,2928.0,5.91,-5.68,7.25,1.93,31.16,-0.53,18.07,100.0-110.0
100.0,2922.0,0.52,-1.62,10.37,-1.96,-9.67,-1.93,18.08,100.0-110.0
100.0,678.0,5.13,13.72,15.09,8.69,-30.58,8.84,18.06,100.0-110.0
100.0,2030.0,-2.75,13.23,4.09,17.94,3.77,8.35,18.09,100.0-110.0
100.0,309.0,-1.67,3.05,6.77,4.98,3.26,4.48,18.09,100.0-110.0
100.0,2928.0,3.47,-13.92,23.27,-13.57,-5.16,-10.8,18.08,100.0-110.0
100.0,2101.0,0.47,8.42,6.92,2.91,-27.63,4.81,18.08,100.0-110.0
100.0,690.0,5.6,14.62,17.16,16.54,-12.44,11.06,18.09,100.0-110.0
100.0,1203.0,-12.13,10.96,3.29,11.16,0.55,9.88,18.05,100.0-110.0
100.0,2926.0,1.57,-15.07,20.87,-22.13,-11.51,-11.07,18.06,100.0-110.0
100.0,2928.0,0.33,-4.55,12.63,-4.64,-8.12,-2.66,18.09,100.0-110.0
100.0,889.0,5.03,13.08,13.4,8.43,-32.9,9.5,18.09,100.0-110.0
100.0,1179.0,-0.35,14.05,5.0,20.0,3.8,9.04,18.08,100.0-110.0
100.0,0.0,-5.39,-11.72,3.28,-16.64,11.28,-12.03,18.07,100.0-110.0
100.0,2927.0,5.83,-14.15,23.26,-13.75,-7.17,-11.5,18.08,100.0-110.0
100.0,1272.0,-0.84,7.3,5.9,1.58,-22.39,2.72,18.07,100.0-110.0
100.0,1200.0,5.98,14.24,19.71,13.83,-19.94,10.58,18.08,100.0-110.0
100.0,13.0,-2.9,-11.09,-1.02,-5.96,43.44,-8.03,18.06,100.0-110.0
100.0,2928.0,-0.01,-15.55,18.54,-23.81,-13.44,-11.36,18.08,100.0-110.0
100.0,2928.0,2.31,-6.5,14.6,-4.87,-2.81,-3.94,18.08,100.0-110.0
100.0,14.0,3.62,12.8,11.5,6.27,-37.25,9.13,18.09,100.0-110.0
100.0,1404.0,5.36,-5.67,7.33,3.03,32.04,-1.76,18.07,100.0-110.0
100.0,2935.0,-5.11,-12.36,1.11,-15.57,17.18,-11.97,18.08,100.0-110.0
100.0,2928.0,4.26,-15.99,25.92,-17.8,-9.23,-11.65,18.07,100.0-110.0
100.0,1085.0,-0.7,4.95,6.63,2.57,-15.47,1.46,18.08,100.0-110.0
100.0,1008.0,-2.57,2.85,6.04,4.82,4.81,5.81,18.07,100.0-110.0
100.0,0.0,0.64,-9.29,0.62,-1.13,41.87,-5.65,18.06,100.0-110.0
100.0,2927.0,-1.13,-13.43,14.06,-22.48,-9.06,-11.45,18.08,100.0-110.0
100.0,1441.0,3.24,-9.43,17.72,-8.61,-4.09,-6.66,18.06,100.0-110.0
100.0,782.0,-10.67,10.89,2.37,10.95,1.62,7.79,18.07,100.0-110.0
100.0,148.0,5.87,-4.76,8.46,2.71,25.42,-1.26,18.07,100.0-110.0
100.0,2928.0,-5.57,-11.16,-1.21,-12.04,22.72,-11.12,18.07,100.0-110.0
100.0,2928.0,4.54,-15.84,24.51,-18.48,-10.1,-12.28,18.07,100.0-110.0
100.0,676.0,-1.23,13.05,4.41,18.9,5.48,9.01,18.06,100.0-110.0
100.0,999.0,-2.56,4.0,6.86,4.66,-2.44,6.37,18.05,100.0-110.0
100.0,2498.0,-0.23,-9.69,0.72,-0.8,45.75,-5.61,18.07,100.0-110.0
100.0,2928.0,-1.38,-13.64,13.79,-21.7,-7.75,-10.52,18.08,100.0-110.0
100.0,0.0,5.57,14.1,16.91,15.89,-10.85,11.62,18.09,100.0-110.0
100.0,1302.0,-10.98,11.46,2.35,12.08,-1.72,9.53,18.08,100.0-110.0
100.0,0.0,6.26,-4.48,7.88,3.31,28.05,-0.98,18.07,100.0-110.0
100.0,2928.0,-6.02,-10.89,-1.65,-12.46,23.39,-11.42,18.08,100.0-110.0
100.0,1758.0,4.72,12.68,16.25,7.4,-36.15,8.43,18.1,100.0-110.0
100.0,789.0,-2.1,12.86,3.67,18.23,4.47,8.55,18.09,100.0-110.0
100.0,0.0,-1.17,2.51,7.83,3.69,-2.56,5.13,18.07,100.0-110.0
100.0,2928.0,-1.21,-9.58,-0.96,-1.76,46.69,-7.0,18.07,100.0-110.0
100.0,2928.0,0.23,8.03,8.67,1.18,-33.34,6.08,18.09,100.0-110.0
100.0,318.0,5.49,13.76,14.24,17.71,-4.62,10.55,18.07,100.0-110.0
100.0,304.0,-11.28,10.24,4.38,8.95,-3.71,8.34,18.05,100.0-110.0
100.0,2927.0,5.59,-6.65,7.78,1.92,32.04,-2.07,18.09,100.0-110.0
100.0,2929.0,-1.73,-0.48,9.7,-2.98,-11.84,-1.78,18.08,100.0-110.0
100.0,1523.0,6.38,12.27,17.98,10.34,-27.89,9.45,18.1,100.0-110.0
100.0,1557.0,-6.15,13.36,1.34,17.8,4.38,9.25,18.08,100.0-110.0
100.0,299.0,3.05,-0.31,8.67,2.36,4.04,3.24,18.06,100.0-110.0
100.0,2928.0,2.86,-10.25,18.32,-8.84,0.58,-7.8,18.08,100.0-110.0
100.0,1217.0,2.51,9.33,10.89,1.72,-37.25,7.23,18.07,100.0-110.0
100.0,1.0,3.91,13.93,11.11,19.27,-0.81,10.96,18.09,100.0-110.0
100.0,0.0,-9.71,8.61,5.95,7.41,-6.91,8.11,18.07,100.0-110.0
100.0,2928.0,3.56,-14.8,24.56,-17.17,-4.94,-11.33,18.07,100.0-110.0
100.0,2353.0,-0.7,2.55,7.43,-1.74,-18.45,-0.14,18.07,100.0-110.0
100.0,377.0,6.99,13.11,19.23,11.64,-22.39,8.78,18.07,100.0-110.0
100.0,809.0,-9.8,12.61,1.8,15.3,0.11,8.37,18.07,100.0-110.0
100.0,2928.0,-1.2,-13.18,15.76,-20.19,-6.41,-12.03,18.07,100.0-110.0
100.0,2928.0,2.32,-7.59,14.24,-6.11,-0.44,-6.17,18.06,100.0-110.0
100.0,1058.0,4.02,10.87,13.51,3.5,-37.83,8.92,18.07,100.0-110.0
100.0,1010.0,0.83,12.95,7.12,18.87,0.76,10.6,18.07,100.0-110.0
100.0,1348.0,-6.2,-10.49,1.58,-14.39,13.52,-9.61,18.07,100.0-110.0
100.0,2927.0,4.19,-14.47,23.75,-14.12,-2.66,-10.38,18.05,100.0-110.0
100.0,10.0,0.22,6.22,7.32,0.7,-25.38,3.18,18.07,100.0-110.0
100.0,1184.0,5.72,13.96,17.86,15.8,-14.22,9.03,18.07,100.0-110.0
100.0,0.0,-2.75,-9.52,-2.9,-3.39,39.58,-8.43,18.06,100.0-110.0
100.0,2926.0,0.8,-14.17,20.17,-20.22,-10.15,-12.11,18.08,100.0-110.0
100.0,1470.0,0.65,-3.64,11.42,-4.74,-4.27,-3.36,18.06,100.0-110.0
100.0,415.0,4.81,11.75,16.82,7.01,-35.61,10.48,18.06,100.0-110.0
100.0,0.0,3.76,-8.03,6.29,1.09,37.31,-2.98,18.08,100.0-110.0
100.0,2925.0,-5.24,-11.5,5.83,-17.22,4.84,-9.94,18.06,100.0-110.0
100.0,2928.0,6.71,-11.69,19.17,-10.56,2.14,-9.41,18.07,100.0-110.0
100.0,62.0,-0.67,8.1,9.54,0.41,-35.19,4.6,18.08,100.0-110.0
100.0,227.0,4.68,-1.57,9.2,2.79,14.3,0.28,18.07,100.0-110.0
100.0,1653.0,-5.61,-11.52,-2.32,-9.13,32.41,-10.6,18.07,100.0-110.0
100.0,2925.0,4.12,-15.1,22.69,-18.62,-6.9,-11.38,18.08,100.0-110.0
100.0,113.0,-0.88,0.09,8.91,-1.56,-7.98,-1.43,18.08,100.0-110.0
100.0,1505.0,-5.11,7.61,4.6,8.45,-3.24,7.88,18.06,100.0-110.0
100.0,0.0,1.41,-8.37,2.84,-0.16,44.4,-5.27,18.07,100.0-110.0
100.0,2927.0,-3.61,-13.61,8.61,-21.32,0.12,-11.54,18.06,100.0-110.0
100.0,1847.0,4.69,-12.14,21.06,-9.94,-0.53,-8.09,18.07,100.0-110.0
100.0,23.0,-9.11,12.05,1.33,15.57,2.44,9.45,18.06,100.0-110.0
100.0,0.0,4.63,-1.28,7.14,4.88,19.04,1.87,18.03,100.0-110.0
100.0,2928.0,-4.41,-10.98,-2.08,-8.06,33.58,-9.93,18.06,100.0-110.0
100.0,2071.0,2.62,-15.9,22.14,-22.33,-12.13,-12.58,18.05,100.0-110.0
100.0,0.0,2.72,13.8,10.43,18.69,-1.71,9.38,18.05,100.0-110.0
100.0,638.0,-9.29,8.22,4.03,7.5,0.15,7.44,18.07,100.0-110.0
100.0,479.0,4.91,-7.7,6.23,1.23,36.68,-3.62,18.07,100.0-110.0
100.0,2927.0,-5.76,-12.65,3.44,-19.05,8.25,-12.03,18.08,100.0-110.0
100.0,733.0,6.29,14.11,18.56,11.29,-31.63,10.83,18.06,100.0-110.0
100.0,0.0,-6.43,12.87,1.4,17.45,6.88,9.9,18.06,100.0-110.0
100.0,0.0,2.44,0.55,6.63,4.08,9.48,4.04,18.05,100.0-110.0
100.0,2925.0,-2.69,-11.39,-1.21,-5.21,40.45,-8.22,18.07,100.0-110.0
100.0,2421.0,2.89,10.64,8.2,3.93,-35.03,7.5,18.06,100.0-110.0
100.0,0.0,3.38,14.27,14.43,18.78,-6.2,10.89,18.06,100.0-110.0
100.0,301.0,-11.21,9.89,3.14,10.34,0.37,8.89,18.06,100.0-110.0
100.0,2927.0,5.61,-6.26,7.66,1.83,33.34,-1.85,18.07,100.0-110.0
100.0,2023.0,0.98,-0.23,9.07,-1.9,-10.07,-1.27,18.06,100.0-110.0
100.0,0.0,3.92,13.57,17.11,9.21,-31.49,9.88,18.07,100.0-110.0
100.0,1023.0,-4.01,13.46,2.09,19.53,5.86,9.5,18.07,100.0-110.0
100.0,0.0,1.23,2.26,6.0,3.03,6.32,3.85,18.08,100.0-110.0
100.0,2928.0,6.07,-11.75,19.47,-11.05,-3.45,-8.92,18.06,100.0-110.0
100.0,1055.0,0.76,9.05,8.46,1.7,-31.68,5.0,18.06,100.0-110.0
100.0,0.0,3.48,13.3,15.91,17.1,-8.27,9.71,18.07,100.0-110.0
