Speed,Voice,Acceleration X,Acceleration Y,Acceleration Z,Gyro X,Gyro Y,Gyro Z,Temperature,Speed_Range
110.0,1808.0,2.01,2.78,16.22,5.18,-26.04,6.36,27.76,110.0-120.0
110.0,1742.0,0.43,4.67,14.78,8.1,-27.4,9.95,27.76,110.0-120.0
110.0,1045.0,-2.89,-1.74,4.64,-6.41,14.43,-3.19,27.75,110.0-120.0
110.0,84.0,-0.78,-4.59,5.76,-9.48,19.03,-7.45,27.75,110.0-120.0
110.0,2927.0,0.06,-6.37,7.48,-10.15,23.14,-10.07,27.76,110.0-120.0
110.0,2285.0,-0.85,-6.23,8.52,-8.23,22.74,-10.45,27.77,110.0-120.0
110.0,1250.0,0.95,3.64,15.56,6.21,-26.96,8.91,27.76,110.0-120.0
110.0,2458.0,-0.07,4.93,13.72,8.43,-23.95,10.1,27.73,110.0-120.0
110.0,2785.0,-0.22,5.84,11.33,10.43,-17.83,10.35,27.75,110.0-120.0
110.0,1675.0,0.36,5.95,9.25,10.65,-12.2,10.04,27.75,110.0-120.0
110.0,472.0,-0.69,-4.6,7.07,-9.11,18.06,-8.87,27.73,110.0-120.0
110.0,0.0,-0.24,-5.51,8.14,-9.66,17.43,-10.06,27.73,110.0-120.0
110.0,2926.0,-0.13,-5.83,8.77,-10.0,16.11,-10.27,27.74,110.0-120.0
110.0,2640.0,-0.14,-5.94,9.2,-10.08,13.72,-10.03,27.77,110.0-120.0
110.0,1069.0,1.48,2.12,13.29,6.57,-17.43,4.87,27.75,110.0-120.0
110.0,204.0,1.19,2.92,13.07,7.75,-17.27,6.29,27.75,110.0-120.0
110.0,227.0,0.83,3.75,12.66,8.71,-16.52,6.88,27.74,110.0-120.0
110.0,2072.0,0.31,4.4,12.19,9.61,-15.48,6.99,27.75,110.0-120.0
110.0,2927.0,-1.69,2.17,7.1,-1.85,11.05,2.9,27.74,110.0-120.0
110.0,1275.0,-1.6,1.66,7.01,-2.83,11.31,1.42,27.76,110.0-120.0
110.0,86.0,-1.59,1.26,6.8,-3.33,12.2,0.61,27.75,110.0-120.0
110.0,0.0,-1.47,0.95,6.77,-3.85,13.02,0.38,27.76,110.0-120.0
110.0,902.0,-0.41,-5.89,12.19,-6.9,-1.99,-9.67,27.74,110.0-120.0
110.0,2928.0,-0.41,-5.72,12.23,-6.26,-3.14,-8.7,27.75,110.0-120.0
110.0,2927.0,-0.42,-5.63,12.19,-5.67,-3.87,-8.09,27.74,110.0-120.0
110.0,2352.0,-0.44,-5.41,12.2,-5.03,-4.19,-7.92,27.74,110.0-120.0
110.0,1187.0,-1.44,5.92,10.82,11.01,-9.64,10.35,27.74,110.0-120.0
110.0,0.0,-1.67,6.02,10.68,10.86,-9.22,9.83,27.75,110.0-120.0
110.0,1002.0,-1.78,6.03,10.56,10.83,-8.43,9.14,27.77,110.0-120.0
110.0,2927.0,-1.91,6.13,10.57,10.83,-7.94,8.83,27.75,110.0-120.0
110.0,2369.0,-1.37,-0.24,7.25,-6.51,12.86,-1.89,27.74,110.0-120.0
110.0,806.0,-1.29,-0.36,7.48,-6.83,12.2,-1.39,27.75,110.0-120.0
110.0,29.0,-1.5,-0.34,7.48,-6.96,12.35,-0.76,27.74,110.0-120.0
110.0,0.0,-1.45,-0.19,7.23,-6.58,13.16,-0.18,27.75,110.0-120.0
110.0,2557.0,-0.17,-5.61,12.59,-4.52,-6.54,-7.97,27.74,110.0-120.0
110.0,2928.0,-0.21,-5.74,12.59,-4.81,-6.87,-8.07,27.76,110.0-120.0
110.0,2927.0,-0.36,-5.6,12.53,-4.72,-6.0,-8.64,27.76,110.0-120.0
110.0,1166.0,-0.38,-5.65,12.49,-4.78,-5.49,-9.28,27.74,110.0-120.0
110.0,1731.0,-1.38,6.0,10.33,11.24,-7.21,8.8,27.73,110.0-120.0
110.0,0.0,-1.45,5.94,10.17,11.26,-7.15,8.45,27.76,110.0-120.0
110.0,0.0,-1.06,5.76,10.1,11.1,-7.29,8.38,27.76,110.0-120.0
110.0,2114.0,-0.5,0.98,7.51,-5.35,11.8,0.82,27.75,110.0-120.0
110.0,1527.0,-0.59,1.16,7.51,-5.19,11.7,1.68,27.77,110.0-120.0
110.0,1453.0,-0.53,1.38,7.46,-4.92,11.74,2.47,27.77,110.0-120.0
110.0,1829.0,-0.43,1.51,7.57,-4.51,11.36,3.02,27.75,110.0-120.0
110.0,0.0,0.1,-6.39,12.51,-7.74,-3.4,-9.9,27.74,110.0-120.0
110.0,863.0,0.37,-6.36,12.33,-7.73,-2.91,-10.25,27.77,110.0-120.0
110.0,2925.0,0.44,-6.44,12.3,-7.94,-2.77,-10.86,27.77,110.0-120.0
110.0,2405.0,0.46,-6.43,12.06,-8.12,-1.82,-11.31,27.75,110.0-120.0
110.0,2157.0,1.33,4.72,9.47,11.61,-9.32,6.16,27.77,110.0-120.0
110.0,38.0,1.71,4.61,9.44,11.53,-9.3,5.98,27.77,110.0-120.0
110.0,816.0,1.76,4.47,9.5,11.12,-9.9,6.1,27.76,110.0-120.0
110.0,0.0,2.02,4.26,9.35,10.9,-10.11,6.06,27.73,110.0-120.0
110.0,0.0,0.03,3.02,7.83,-1.45,9.94,6.32,27.74,110.0-120.0
110.0,1904.0,-0.03,3.17,7.99,-1.2,9.24,6.81,27.75,110.0-120.0
110.0,1136.0,-0.14,3.4,7.93,-0.55,9.42,6.99,27.74,110.0-120.0
110.0,1387.0,-0.18,3.48,7.81,-0.14,9.1,6.91,27.75,110.0-120.0
110.0,607.0,1.56,-6.42,10.1,-10.69,2.3,-11.12,27.75,110.0-120.0
110.0,0.0,1.86,-6.41,9.96,-10.72,2.69,-11.15,27.74,110.0-120.0
110.0,336.0,1.76,-6.34,9.89,-10.85,2.57,-10.99,27.73,110.0-120.0
110.0,2927.0,1.52,-6.11,9.69,-10.63,3.26,-10.54,27.76,110.0-120.0
110.0,2415.0,1.57,1.73,10.5,8.74,-10.29,1.89,27.75,110.0-120.0
110.0,1875.0,1.22,1.42,10.61,8.45,-9.8,1.66,27.72,110.0-120.0
110.0,814.0,1.15,0.99,10.91,7.64,-10.17,1.17,27.73,110.0-120.0
110.0,0.0,0.91,0.57,11.17,7.24,-9.91,0.56,27.74,110.0-120.0
110.0,0.0,-0.46,5.32,7.37,4.13,4.04,10.04,27.77,110.0-120.0
110.0,0.0,-0.38,5.54,7.34,4.6,2.86,10.04,27.77,110.0-120.0
110.0,1744.0,-0.67,5.69,7.35,5.38,2.89,9.98,27.75,110.0-120.0
110.0,2000.0,-0.82,5.89,7.46,5.87,1.64,10.19,27.76,110.0-120.0
110.0,2555.0,-1.52,-4.93,9.52,-11.16,8.38,-8.16,27.75,110.0-120.0
110.0,295.0,-2.03,-4.57,9.39,-10.69,9.86,-7.57,27.73,110.0-120.0
110.0,0.0,-2.4,-4.32,9.56,-10.58,10.32,-6.79,27.75,110.0-120.0
110.0,384.0,-2.62,-3.89,9.38,-10.14,10.69,-6.0,27.76,110.0-120.0
110.0,2923.0,-0.35,-3.22,11.82,1.8,-9.62,-4.58,27.75,110.0-120.0
110.0,2927.0,-0.4,-3.53,11.88,1.03,-9.59,-5.19,27.77,110.0-120.0
110.0,2926.0,-0.45,-3.84,12.2,0.22,-9.82,-5.95,27.75,110.0-120.0
110.0,2054.0,-0.8,-4.1,12.19,-0.71,-9.71,-6.81,27.75,110.0-120.0
110.0,847.0,-3.25,6.83,9.54,9.91,-1.95,10.35,27.77,110.0-120.0
110.0,0.0,-3.07,6.72,9.73,10.1,-2.71,10.21,27.73,110.0-120.0
110.0,0.0,-2.87,6.49,10.14,10.16,-3.52,10.15,27.71,110.0-120.0
110.0,1767.0,-2.88,6.38,10.34,10.26,-4.27,10.07,27.72,110.0-120.0
110.0,2928.0,-1.57,-0.56,8.27,-7.31,11.28,-0.73,27.73,110.0-120.0
110.0,914.0,-1.19,-0.12,8.13,-6.72,11.45,0.12,27.77,110.0-120.0
110.0,2008.0,-1.1,0.35,8.18,-5.88,11.01,0.75,27.74,110.0-120.0
110.0,0.0,-0.51,0.78,8.01,-5.38,10.32,1.39,27.79,110.0-120.0
110.0,0.0,-0.18,-6.12,12.68,-6.35,-4.43,-10.1,27.76,110.0-120.0
110.0,2638.0,-0.17,-6.19,12.59,-7.1,-4.45,-10.47,27.74,110.0-120.0
110.0,2927.0,-0.03,-6.23,12.31,-7.6,-3.03,-10.76,27.72,110.0-120.0
110.0,2926.0,0.28,-6.3,12.01,-8.28,-1.88,-10.88,27.76,110.0-120.0
110.0,2927.0,1.52,4.79,9.12,11.42,-7.97,6.65,27.76,110.0-120.0
110.0,1674.0,2.16,4.36,9.09,10.97,-8.48,6.23,27.77,110.0-120.0
110.0,1639.0,2.4,4.04,9.11,10.81,-8.93,5.71,27.77,110.0-120.0
110.0,0.0,2.63,3.59,9.11,10.66,-8.84,5.02,27.77,110.0-120.0
110.0,293.0,0.46,3.33,8.16,-1.26,7.35,6.76,27.74,110.0-120.0
110.0,2075.0,0.44,3.65,8.06,-0.36,7.15,7.16,27.76,110.0-120.0
110.0,2502.0,0.28,3.93,8.14,0.54,6.9,7.49,27.75,110.0-120.0
110.0,2753.0,0.3,4.25,7.71,1.38,6.43,8.01,27.75,110.0-120.0
110.0,1744.0,1.79,-6.2,9.24,-10.49,3.67,-10.6,27.74,110.0-120.0
110.0,0.0,1.33,-5.96,9.07,-10.49,4.2,-10.16,27.74,110.0-120.0
110.0,1189.0,0.91,-5.8,8.88,-10.7,5.53,-9.77,27.74,110.0-120.0
110.0,2927.0,0.77,-5.67,8.96,-10.85,5.76,-9.41,27.76,110.0-120.0
110.0,2927.0,1.45,0.11,10.65,6.51,-9.62,-0.12,27.74,110.0-120.0
110.0,2256.0,1.42,-0.43,10.99,5.66,-10.29,-0.79,27.74,110.0-120.0
110.0,1641.0,1.0,-0.91,10.97,5.03,-10.09,-1.66,27.74,110.0-120.0
110.0,993.0,0.81,-1.42,11.14,4.25,-9.87,-2.47,27.74,110.0-120.0
110.0,877.0,-0.69,6.02,7.27,6.36,1.95,10.68,27.74,110.0-120.0
110.0,710.0,-1.08,6.04,7.4,6.83,1.29,10.85,27.74,110.0-120.0
110.0,1521.0,-1.46,6.24,7.98,7.4,-0.3,11.03,27.74,110.0-120.0
110.0,2783.0,-1.63,6.35,7.85,8.13,-0.33,11.28,27.74,110.0-120.0
110.0,2047.0,-2.24,-3.89,9.37,-9.8,10.9,-6.06,27.74,110.0-120.0
110.0,2923.0,-2.29,-3.59,9.31,-9.57,11.18,-5.26,27.74,110.0-120.0
110.0,705.0,-2.22,-3.25,9.05,-9.59,11.09,-4.91,27.75,110.0-120.0
110.0,0.0,-2.42,-2.61,9.09,-8.93,11.83,-4.3,27.74,110.0-120.0
110.0,2928.0,-0.68,-4.11,12.18,-0.97,-9.67,-6.74,27.74,110.0-120.0
110.0,2927.0,-0.79,-4.34,12.09,-1.64,-9.18,-7.2,27.75,110.0-120.0
110.0,2927.0,-0.66,-4.7,12.32,-2.42,-8.89,-7.69,27.74,110.0-120.0
110.0,2926.0,-0.72,-5.01,12.53,-3.15,-8.67,-8.35,27.74,110.0-120.0
110.0,1415.0,-3.01,6.39,10.01,10.14,-3.43,10.22,27.75,110.0-120.0
110.0,944.0,-2.87,6.31,10.11,10.52,-3.69,10.06,27.74,110.0-120.0
110.0,306.0,-2.75,6.27,10.15,10.77,-4.16,10.06,27.75,110.0-120.0
110.0,637.0,-2.36,6.12,10.23,11.0,-4.56,9.86,27.72,110.0-120.0
110.0,2927.0,-1.22,0.18,7.97,-5.59,11.83,0.38,27.72,110.0-120.0
110.0,2928.0,-0.51,0.57,7.78,-5.04,11.79,0.98,27.72,110.0-120.0
110.0,1980.0,-0.3,1.01,7.93,-4.64,11.02,1.5,27.74,110.0-120.0
110.0,0.0,-0.18,1.31,8.08,-4.28,10.64,2.0,27.73,110.0-120.0
110.0,725.0,-0.89,-6.27,13.32,-7.7,-4.98,-10.56,27.73,110.0-120.0
110.0,2926.0,-0.59,-6.27,12.85,-7.82,-3.76,-10.65,27.73,110.0-120.0
110.0,2927.0,-0.57,-6.54,12.83,-8.73,-3.69,-10.88,27.74,110.0-120.0
110.0,2927.0,-0.18,-6.45,12.59,-9.01,-3.32,-10.83,27.74,110.0-120.0
110.0,2928.0,0.63,4.71,9.66,10.97,-7.06,6.59,27.75,110.0-120.0
110.0,1653.0,0.96,4.56,9.47,11.09,-7.27,6.18,27.73,110.0-120.0
110.0,1460.0,1.25,4.25,9.39,11.16,-7.62,5.83,27.74,110.0-120.0
110.0,1751.0,1.66,3.85,9.28,11.03,-7.82,5.05,27.72,110.0-120.0
110.0,775.0,1.05,3.4,8.3,-0.78,7.79,6.73,27.74,110.0-120.0
110.0,2925.0,0.85,3.52,8.26,-0.22,7.64,6.97,27.74,110.0-120.0
110.0,1868.0,1.08,3.82,8.46,-0.07,6.03,7.6,27.74,110.0-120.0
110.0,851.0,0.95,4.08,8.33,0.5,5.42,8.04,27.74,110.0-120.0
110.0,913.0,0.56,-6.1,9.62,-10.72,2.95,-10.82,27.75,110.0-120.0
110.0,1773.0,0.41,-5.95,9.59,-11.1,3.06,-10.5,27.74,110.0-120.0
110.0,2927.0,0.37,-5.78,9.29,-10.99,3.87,-10.13,27.75,110.0-120.0
110.0,2927.0,0.22,-5.81,9.18,-11.3,4.4,-9.89,27.75,110.0-120.0
110.0,2928.0,2.36,0.4,10.02,7.85,-7.94,-0.0,27.75,110.0-120.0
110.0,2178.0,2.24,-0.21,10.17,7.12,-7.96,-0.82,27.73,110.0-120.0
110.0,1033.0,2.05,-0.7,10.25,6.71,-7.99,-1.53,27.74,110.0-120.0
110.0,644.0,2.12,-1.26,10.32,5.64,-8.66,-2.24,27.75,110.0-120.0
110.0,16.0,-0.92,5.68,8.01,5.03,-0.74,10.93,27.75,110.0-120.0
110.0,547.0,-1.43,6.01,8.1,5.78,-0.98,11.05,27.78,110.0-120.0
110.0,1634.0,-1.86,6.29,8.28,6.53,-1.61,11.17,27.74,110.0-120.0
110.0,1561.0,-2.75,6.43,8.69,6.72,-2.43,11.34,27.73,110.0-120.0
110.0,717.0,-2.61,-3.46,8.96,-9.27,12.38,-6.07,27.75,110.0-120.0
110.0,852.0,-2.68,-3.07,8.84,-8.6,13.51,-5.31,27.75,110.0-120.0
110.0,0.0,-2.28,-2.78,8.61,-8.46,14.0,-4.68,27.74,110.0-120.0
110.0,0.0,-2.12,-2.37,8.55,-8.12,13.69,-4.07,27.73,110.0-120.0
110.0,2928.0,0.05,-4.82,12.71,-2.31,-11.79,-7.26,27.72,110.0-120.0
110.0,2400.0,-0.32,-5.09,12.68,-2.97,-11.28,-7.78,27.75,110.0-120.0
110.0,2496.0,-0.67,-5.46,13.1,-3.91,-10.35,-8.41,27.74,110.0-120.0
110.0,2191.0,-0.81,-5.67,13.38,-4.6,-10.28,-8.85,27.73,110.0-120.0
110.0,2077.0,-3.55,6.54,9.84,11.03,-2.24,9.75,27.72,110.0-120.0
110.0,0.0,-3.12,6.45,9.68,11.35,-2.28,9.4,27.74,110.0-120.0
110.0,0.0,-2.42,6.24,9.77,11.45,-3.12,9.05,27.73,110.0-120.0
110.0,1210.0,-1.55,6.1,9.45,11.71,-3.73,8.85,27.73,110.0-120.0
110.0,1776.0,0.73,1.23,8.15,-4.45,9.77,2.64,27.74,110.0-120.0
110.0,2694.0,0.48,1.71,8.31,-3.88,9.57,3.45,27.75,110.0-120.0
110.0,1909.0,0.59,2.1,8.34,-3.09,9.32,4.06,27.74,110.0-120.0
110.0,639.0,0.76,2.29,8.58,-2.75,8.34,4.61,27.73,110.0-120.0
110.0,0.0,-0.3,-6.53,11.95,-9.76,-2.88,-11.18,27.72,110.0-120.0
110.0,206.0,0.17,-6.44,11.24,-9.76,-0.89,-11.28,27.75,110.0-120.0
110.0,2926.0,0.4,-6.46,10.83,-10.18,-0.05,-11.14,27.73,110.0-120.0
110.0,2927.0,0.85,-6.35,10.14,-10.37,0.33,-10.86,27.74,110.0-120.0
110.0,2927.0,2.83,2.83,9.14,10.8,-6.87,3.4,27.73,110.0-120.0
110.0,1477.0,2.97,2.19,9.5,10.13,-7.39,2.85,27.73,110.0-120.0
110.0,1469.0,3.24,1.66,9.64,9.2,-8.23,2.0,27.74,110.0-120.0
110.0,0.0,2.8,1.06,9.97,8.48,-8.28,1.11,27.74,110.0-120.0
110.0,4.0,-0.12,4.96,8.06,2.15,3.01,9.69,27.72,110.0-120.0
110.0,1789.0,-0.29,5.23,7.97,3.02,2.49,9.93,27.76,110.0-120.0
110.0,1228.0,-0.61,5.45,7.62,3.53,1.52,10.24,27.75,110.0-120.0
110.0,0.0,-1.08,5.87,7.76,4.69,1.85,10.45,27.73,110.0-120.0
110.0,871.0,-1.23,-4.81,8.75,-10.14,10.03,-8.42,27.75,110.0-120.0
110.0,0.0,-1.46,-4.54,8.97,-10.08,10.61,-7.52,27.74,110.0-120.0
110.0,0.0,-2.0,-4.31,9.4,-10.11,10.17,-6.71,27.73,110.0-120.0
110.0,1263.0,-2.39,-3.91,9.03,-9.51,11.63,-5.94,27.75,110.0-120.0
110.0,2747.0,0.71,-3.51,11.57,1.32,-10.75,-4.97,27.75,110.0-120.0
110.0,2019.0,0.16,-3.95,11.79,0.32,-10.63,-5.94,27.73,110.0-120.0
110.0,2651.0,-0.3,-4.27,12.0,-0.51,-10.26,-6.85,27.73,110.0-120.0
110.0,2225.0,-0.1,-4.63,12.44,-1.65,-11.13,-7.75,27.76,110.0-120.0
110.0,0.0,-3.62,6.88,9.93,9.82,-2.13,10.47,27.74,110.0-120.0
110.0,0.0,-3.65,6.84,9.99,10.34,-2.69,10.39,27.74,110.0-120.0
110.0,0.0,-3.6,6.65,9.94,10.43,-2.95,10.12,27.75,110.0-120.0
110.0,1774.0,-2.97,6.5,9.93,10.94,-2.72,9.9,27.73,110.0-120.0
110.0,1853.0,-0.65,-0.09,8.4,-6.06,10.46,0.61,27.74,110.0-120.0
110.0,1998.0,-0.76,0.53,8.43,-5.53,10.54,1.51,27.72,110.0-120.0
110.0,368.0,-0.5,1.03,8.18,-4.57,10.69,2.27,27.74,110.0-120.0
110.0,0.0,-0.07,1.47,8.47,-3.85,10.06,3.05,27.74,110.0-120.0
110.0,0.0,-0.78,-6.39,12.88,-8.37,-4.28,-10.91,27.74,110.0-120.0
110.0,2927.0,-0.19,-6.44,12.51,-8.75,-1.98,-11.25,27.76,110.0-120.0
110.0,2928.0,-0.05,-6.56,12.13,-9.53,-1.44,-11.37,27.73,110.0-120.0
110.0,1798.0,0.3,-6.4,11.41,-9.63,-0.45,-11.23,27.74,110.0-120.0
110.0,1403.0,2.04,3.94,9.21,11.06,-8.19,5.04,27.74,110.0-120.0
110.0,1072.0,2.45,3.41,9.41,10.87,-8.37,4.59,27.74,110.0-120.0
110.0,89.0,2.51,2.94,9.73,10.14,-9.3,3.77,27.73,110.0-120.0
110.0,0.0,2.46,2.3,9.66,9.76,-8.51,3.01,27.73,110.0-120.0
110.0,913.0,0.25,4.43,8.0,1.0,6.02,8.51,27.73,110.0-120.0
110.0,1731.0,0.19,4.54,8.04,1.22,5.09,8.82,27.73,110.0-120.0
110.0,2223.0,-0.07,5.03,7.7,2.19,4.1,9.29,27.73,110.0-120.0
110.0,944.0,-0.13,5.31,7.5,3.0,4.2,9.66,27.74,110.0-120.0
110.0,0.0,0.71,-5.47,8.68,-9.89,7.42,-9.74,27.73,110.0-120.0
110.0,0.0,0.3,-5.38,8.71,-10.27,7.38,-9.26,27.72,110.0-120.0
110.0,1126.0,0.17,-5.28,8.63,-10.34,8.75,-9.0,27.75,110.0-120.0
110.0,2927.0,-0.53,-4.84,9.0,-9.89,9.39,-8.21,27.74,110.0-120.0
110.0,2768.0,1.16,-1.91,11.39,3.61,-10.89,-2.81,27.72,110.0-120.0
110.0,2927.0,0.66,-2.27,11.31,2.77,-10.99,-3.4,27.74,110.0-120.0
110.0,1274.0,0.58,-2.65,11.74,2.04,-11.6,-4.01,27.74,110.0-120.0
110.0,485.0,-0.11,-2.92,11.47,1.46,-11.16,-4.81,27.72,110.0-120.0
110.0,0.0,-2.06,6.81,7.89,8.75,-0.02,11.6,27.72,110.0-120.0
110.0,719.0,-2.47,6.58,8.43,8.78,-1.26,11.47,27.72,110.0-120.0
110.0,1933.0,-2.8,6.7,8.66,9.23,-0.76,11.46,27.75,110.0-120.0
110.0,1681.0,-2.46,-3.09,9.36,-9.18,11.42,-4.53,27.74,110.0-120.0
110.0,1346.0,-2.56,-2.73,8.84,-8.96,12.09,-3.98,27.74,110.0-120.0
110.0,0.0,-2.34,-2.2,8.67,-8.32,12.46,-3.39,27.72,110.0-120.0
110.0,79.0,-1.95,-1.78,8.59,-7.83,11.73,-2.69,27.73,110.0-120.0
110.0,786.0,-0.78,-4.93,12.62,-3.0,-8.42,-7.98,27.73,110.0-120.0
110.0,2806.0,-1.18,-5.13,12.82,-3.91,-8.72,-8.47,27.74,110.0-120.0
110.0,2032.0,-1.2,-5.27,12.85,-4.22,-7.61,-8.76,27.72,110.0-120.0
110.0,1793.0,-1.1,-5.57,13.07,-5.06,-7.27,-9.16,27.72,110.0-120.0
110.0,1587.0,-2.46,6.25,10.25,11.01,-4.88,9.72,27.72,110.0-120.0
110.0,848.0,-2.39,6.14,9.9,11.26,-4.27,9.31,27.75,110.0-120.0
110.0,0.0,-1.47,5.94,9.89,11.39,-4.98,8.88,27.74,110.0-120.0
110.0,719.0,-1.07,5.96,9.63,11.77,-4.88,8.73,27.74,110.0-120.0
110.0,1452.0,-0.23,1.04,8.27,-4.72,10.12,1.95,27.74,110.0-120.0
110.0,2927.0,-0.41,1.3,8.21,-4.38,10.03,2.61,27.72,110.0-120.0
110.0,2063.0,-0.15,1.57,8.18,-4.03,10.38,3.04,27.72,110.0-120.0
110.0,913.0,0.08,1.88,8.06,-3.71,9.82,3.52,27.73,110.0-120.0
110.0,0.0,-0.46,-6.26,12.5,-8.41,-2.46,-10.7,27.74,110.0-120.0
110.0,16.0,-0.36,-6.37,12.25,-8.89,-2.16,-10.93,27.74,110.0-120.0
110.0,2927.0,-0.39,-6.22,11.85,-8.76,-0.6,-11.05,27.74,110.0-120.0
110.0,2610.0,-0.16,-6.3,11.54,-9.08,-0.18,-11.05,27.72,110.0-120.0
110.0,2858.0,1.73,4.27,9.91,10.97,-8.84,5.97,27.72,110.0-120.0
110.0,2593.0,2.04,4.06,9.96,10.9,-9.39,5.71,27.74,110.0-120.0
110.0,113.0,2.13,3.81,9.98,10.48,-10.29,5.36,27.76,110.0-120.0
110.0,147.0,1.9,3.56,10.19,10.37,-9.74,4.87,27.74,110.0-120.0
110.0,711.0,-0.33,3.46,8.52,-0.94,7.15,6.7,27.7,110.0-120.0
110.0,2234.0,-0.21,3.68,8.25,-0.37,7.76,7.0,27.72,110.0-120.0
110.0,2353.0,-0.43,3.88,8.11,0.15,7.85,7.25,27.73,110.0-120.0
110.0,1738.0,-0.17,3.87,8.31,0.25,7.22,7.58,27.73,110.0-120.0
110.0,0.0,1.16,-6.23,9.78,-10.15,3.61,-11.23,27.71,110.0-120.0
110.0,0.0,1.27,-6.27,9.77,-10.27,3.9,-11.15,27.71,110.0-120.0
110.0,1211.0,1.24,-6.18,9.34,-10.38,4.68,-11.09,27.74,110.0-120.0
110.0,2927.0,1.21,-6.2,9.58,-10.58,4.84,-11.05,27.71,110.0-120.0
110.0,2928.0,2.06,1.87,10.82,8.37,-11.64,2.37,27.7,110.0-120.0
110.0,2927.0,2.05,1.63,10.83,8.02,-10.96,1.94,27.73,110.0-120.0
110.0,467.0,2.35,1.37,10.62,7.88,-10.93,1.62,27.73,110.0-120.0
110.0,528.0,2.35,1.18,11.03,7.36,-11.27,1.45,27.7,110.0-120.0
110.0,827.0,-0.33,4.8,7.63,2.82,4.95,9.46,27.73,110.0-120.0
110.0,1501.0,-0.23,5.1,7.41,3.38,4.58,9.75,27.73,110.0-120.0
110.0,1955.0,-0.4,5.15,7.15,3.87,5.23,9.84,27.72,110.0-120.0
110.0,2098.0,-0.18,5.21,7.22,3.99,4.68,10.13,27.73,110.0-120.0
110.0,1187.0,0.46,-5.83,9.3,-11.11,6.63,-9.87,27.74,110.0-120.0
110.0,259.0,0.0,-5.7,9.28,-10.92,7.12,-9.75,27.72,110.0-120.0
110.0,0.0,-0.31,-5.62,9.34,-10.98,7.51,-9.58,27.73,110.0-120.0
110.0,2928.0,-0.45,-5.56,9.18,-10.96,8.37,-9.57,27.71,110.0-120.0
110.0,2926.0,1.85,-0.41,10.99,5.35,-10.78,-1.24,27.74,110.0-120.0
110.0,2917.0,1.69,-0.6,10.99,5.05,-10.84,-1.42,27.71,110.0-120.0
110.0,2489.0,1.51,-0.79,10.97,4.71,-10.46,-1.66,27.74,110.0-120.0
110.0,590.0,1.37,-1.1,10.91,4.4,-10.67,-2.12,27.74,110.0-120.0
110.0,456.0,-0.74,5.88,7.42,6.48,1.21,11.23,27.72,110.0-120.0
110.0,416.0,-1.15,6.02,7.38,6.94,1.08,11.14,27.73,110.0-120.0
110.0,2928.0,-1.24,6.08,7.41,7.21,1.17,11.12,27.76,110.0-120.0
110.0,2928.0,-1.25,6.05,7.69,7.24,0.47,11.06,27.75,110.0-120.0
110.0,1878.0,-1.88,-4.51,9.4,-10.56,9.99,-7.58,27.74,110.0-120.0
110.0,578.0,-1.83,-4.43,9.14,-10.63,10.34,-7.35,27.72,110.0-120.0
110.0,0.0,-1.95,-4.23,9.28,-10.53,10.72,-7.0,27.73,110.0-120.0
110.0,1127.0,-1.8,-4.12,9.15,-10.34,11.13,-6.53,27.74,110.0-120.0
110.0,2927.0,0.21,-2.79,11.24,1.44,-9.99,-4.68,27.74,110.0-120.0
