Speed,Voice,Acceleration X,Acceleration Y,Acceleration Z,Gyro X,Gyro Y,Gyro Z,Temperature,Speed_Range
110.0,752.0,0.04,-5.03,7.98,-10.55,17.22,-9.23,28.34,110.0-120.0
110.0,1418.0,-0.81,-5.81,9.44,-10.27,17.19,-10.89,28.34,110.0-120.0
110.0,2926.0,-1.87,-5.59,10.41,-8.99,11.97,-10.35,28.34,110.0-120.0
110.0,2227.0,-1.14,-4.89,10.45,-7.1,4.54,-8.21,28.32,110.0-120.0
110.0,0.0,0.15,5.52,10.56,10.68,-15.54,11.6,28.34,110.0-120.0
110.0,1227.0,0.49,5.84,8.92,10.49,-9.96,11.76,28.35,110.0-120.0
110.0,2273.0,0.23,6.01,7.74,9.49,-3.82,10.7,28.34,110.0-120.0
110.0,0.0,-0.07,5.77,7.66,7.59,-0.15,8.94,28.34,110.0-120.0
110.0,0.0,-0.11,-5.39,9.37,-10.11,12.84,-10.54,28.34,110.0-120.0
110.0,2058.0,-0.34,-5.64,10.06,-10.23,10.14,-11.44,28.33,110.0-120.0
110.0,2928.0,-0.46,-5.71,10.74,-10.06,7.12,-11.43,28.34,110.0-120.0
110.0,2707.0,-0.42,-5.86,11.05,-10.12,4.86,-10.76,28.35,110.0-120.0
110.0,2927.0,-0.42,3.94,11.79,10.0,-12.92,7.0,28.35,110.0-120.0
110.0,1127.0,-0.5,4.31,11.19,10.23,-12.08,8.22,28.34,110.0-120.0
110.0,895.0,-0.95,4.89,11.09,10.77,-10.81,9.16,28.33,110.0-120.0
110.0,944.0,-1.26,5.2,10.72,11.13,-10.14,9.48,28.35,110.0-120.0
110.0,2093.0,-1.77,1.16,7.78,-4.12,12.2,1.39,28.33,110.0-120.0
110.0,1331.0,-1.71,0.86,7.78,-4.57,12.06,0.21,28.34,110.0-120.0
110.0,667.0,-2.06,0.67,7.98,-4.7,12.23,-0.52,28.35,110.0-120.0
110.0,899.0,-1.87,0.57,7.9,-4.98,11.68,-0.82,28.34,110.0-120.0
110.0,2045.0,-0.14,-5.7,12.29,-5.8,-5.52,-10.03,28.37,110.0-120.0
110.0,2927.0,-0.45,-5.68,12.21,-5.44,-5.49,-9.35,28.33,110.0-120.0
110.0,2883.0,-0.4,-5.66,12.03,-5.44,-5.04,-8.71,28.34,110.0-120.0
110.0,2927.0,-0.37,-5.57,12.23,-5.42,-5.0,-8.33,28.34,110.0-120.0
110.0,2021.0,-1.72,5.69,10.32,11.27,-6.25,10.18,28.34,110.0-120.0
110.0,116.0,-1.57,5.72,10.32,11.23,-6.54,9.9,28.34,110.0-120.0
110.0,26.0,-1.3,5.63,10.32,11.55,-6.43,9.25,28.32,110.0-120.0
110.0,1862.0,-1.43,5.32,10.59,11.0,-7.9,8.32,28.35,110.0-120.0
110.0,2554.0,-1.92,1.29,8.44,-4.87,10.34,0.81,28.37,110.0-120.0
110.0,1649.0,-1.64,1.44,8.63,-4.77,9.85,0.93,28.34,110.0-120.0
110.0,2694.0,-1.74,1.75,8.61,-4.23,9.85,1.68,28.33,110.0-120.0
110.0,397.0,-1.26,1.97,8.36,-3.55,10.76,2.67,28.33,110.0-120.0
110.0,0.0,0.23,-6.25,12.24,-7.6,-2.8,-9.95,28.33,110.0-120.0
110.0,2927.0,0.62,-6.45,12.08,-8.24,-1.85,-9.72,28.34,110.0-120.0
110.0,2928.0,0.81,-6.38,12.04,-8.64,-2.24,-9.66,28.33,110.0-120.0
110.0,2928.0,0.95,-6.44,11.93,-9.22,-1.99,-10.07,28.33,110.0-120.0
110.0,2763.0,0.39,4.22,9.94,10.84,-8.58,6.3,28.32,110.0-120.0
110.0,926.0,0.68,3.87,9.85,10.68,-8.81,5.36,28.33,110.0-120.0
110.0,1344.0,1.09,3.46,9.79,10.34,-8.57,4.35,28.35,110.0-120.0
110.0,880.0,1.08,3.19,9.81,10.23,-8.81,3.83,28.33,110.0-120.0
110.0,2449.0,0.36,3.95,8.21,-0.2,8.2,5.91,28.32,110.0-120.0
110.0,2379.0,0.47,4.22,8.01,0.39,7.79,6.88,28.33,110.0-120.0
110.0,663.0,0.74,4.45,7.73,1.08,7.99,7.78,28.34,110.0-120.0
110.0,1824.0,0.9,4.59,7.72,1.64,7.24,8.47,28.32,110.0-120.0
110.0,1611.0,1.97,-6.22,9.66,-11.17,1.38,-9.32,28.33,110.0-120.0
110.0,0.0,1.91,-6.14,9.5,-11.45,2.02,-9.48,28.33,110.0-120.0
110.0,2122.0,1.76,-5.99,9.53,-11.46,2.42,-9.83,28.32,110.0-120.0
110.0,2928.0,1.26,-5.84,9.38,-11.66,3.26,-9.92,28.33,110.0-120.0
110.0,2927.0,0.92,0.23,10.38,7.23,-8.54,-0.52,28.32,110.0-120.0
110.0,2926.0,1.04,-0.28,10.3,6.77,-7.79,-1.14,28.31,110.0-120.0
110.0,2927.0,0.86,-0.72,10.6,6.08,-8.57,-1.33,28.34,110.0-120.0
110.0,700.0,0.74,-1.08,10.55,5.43,-8.77,-1.37,28.33,110.0-120.0
110.0,0.0,0.4,5.94,7.11,5.75,2.6,10.7,28.35,110.0-120.0
110.0,619.0,-0.0,6.12,7.12,6.43,2.27,11.12,28.33,110.0-120.0
110.0,2928.0,-0.2,6.11,7.24,6.85,2.04,11.18,28.34,110.0-120.0
110.0,1808.0,-0.34,6.23,7.63,7.27,0.39,10.96,28.33,110.0-120.0
110.0,2722.0,-1.75,-4.21,9.6,-11.08,7.93,-6.74,28.33,110.0-120.0
110.0,335.0,-2.23,-3.98,9.78,-10.76,8.06,-6.79,28.33,110.0-120.0
110.0,0.0,-2.51,-3.63,9.56,-10.37,9.36,-6.56,28.35,110.0-120.0
110.0,1136.0,-2.9,-3.47,9.65,-10.58,9.73,-6.15,28.34,110.0-120.0
110.0,2928.0,0.06,-3.62,10.94,1.23,-7.99,-5.92,28.34,110.0-120.0
110.0,2237.0,-0.01,-3.95,11.11,0.03,-8.42,-6.0,28.34,110.0-120.0
110.0,2928.0,-0.17,-4.07,11.27,-0.22,-7.81,-6.0,28.32,110.0-120.0
110.0,2023.0,-0.2,-4.32,11.19,-0.78,-7.52,-6.23,28.32,110.0-120.0
110.0,347.0,-2.33,6.51,9.36,10.22,-2.68,11.34,28.31,110.0-120.0
110.0,0.0,-2.43,6.32,9.71,10.17,-3.23,10.91,28.32,110.0-120.0
110.0,736.0,-2.47,6.21,10.09,10.28,-4.13,10.38,28.31,110.0-120.0
110.0,2128.0,-2.52,6.27,10.15,10.66,-4.71,9.99,28.35,110.0-120.0
110.0,2079.0,-3.0,-0.65,9.11,-7.67,11.34,-2.01,28.33,110.0-120.0
110.0,1805.0,-2.77,-0.31,8.86,-7.07,10.98,-1.31,28.35,110.0-120.0
110.0,0.0,-2.68,0.02,8.8,-6.75,11.45,-0.72,28.32,110.0-120.0
110.0,0.0,-2.3,0.41,8.54,-6.05,11.8,0.17,28.3,110.0-120.0
110.0,939.0,-0.2,-5.83,12.37,-5.24,-5.27,-9.14,28.33,110.0-120.0
110.0,2926.0,-0.03,-6.0,12.55,-5.99,-4.78,-9.23,28.3,110.0-120.0
110.0,2559.0,-0.0,-6.08,12.64,-6.44,-4.88,-9.52,28.29,110.0-120.0
110.0,1843.0,0.01,-6.17,12.67,-6.9,-4.37,-9.78,28.33,110.0-120.0
110.0,1429.0,-1.42,5.36,10.33,11.06,-6.95,8.06,28.33,110.0-120.0
110.0,495.0,-1.02,5.21,10.33,11.18,-7.19,7.57,28.3,110.0-120.0
110.0,0.0,-0.58,4.92,10.12,10.98,-7.73,7.19,28.31,110.0-120.0
110.0,185.0,-0.28,4.73,10.05,10.98,-7.82,6.9,28.32,110.0-120.0
110.0,1808.0,-0.68,2.64,8.34,-2.71,9.71,3.91,28.3,110.0-120.0
110.0,2254.0,-0.41,2.78,8.25,-2.26,9.99,4.46,28.32,110.0-120.0
110.0,1137.0,-0.22,3.04,8.27,-1.82,9.68,5.04,28.32,110.0-120.0
110.0,0.0,-0.3,3.41,8.26,-1.16,9.44,5.54,28.32,110.0-120.0
110.0,0.0,1.66,-6.53,11.37,-10.03,-0.59,-10.54,28.32,110.0-120.0
110.0,1872.0,1.64,-6.49,11.19,-10.37,-0.94,-10.64,28.32,110.0-120.0
110.0,2927.0,1.76,-6.37,10.71,-10.29,0.95,-10.76,28.32,110.0-120.0
110.0,2928.0,2.05,-6.45,10.48,-10.58,1.01,-10.97,28.32,110.0-120.0
110.0,2698.0,1.17,2.91,9.96,9.82,-9.32,3.75,28.33,110.0-120.0
110.0,572.0,1.38,2.4,9.92,9.15,-9.54,3.2,28.33,110.0-120.0
110.0,0.0,1.66,2.04,10.13,9.0,-9.96,2.99,28.32,110.0-120.0
110.0,0.0,1.57,1.71,10.14,8.66,-9.62,2.59,28.31,110.0-120.0
110.0,770.0,0.32,4.84,7.59,2.25,7.44,8.24,28.32,110.0-120.0
110.0,2928.0,0.08,5.17,7.35,3.23,7.77,8.71,28.31,110.0-120.0
110.0,587.0,0.32,5.29,7.15,3.55,7.07,8.99,28.31,110.0-120.0
110.0,1288.0,0.61,5.47,7.08,3.96,6.23,9.23,28.31,110.0-120.0
110.0,0.0,2.0,-5.92,9.23,-11.65,3.67,-9.49,28.29,110.0-120.0
110.0,0.0,1.54,-5.75,9.24,-11.57,4.19,-9.32,28.31,110.0-120.0
110.0,1819.0,1.36,-5.5,9.16,-11.33,4.68,-8.96,28.31,110.0-120.0
110.0,2928.0,1.12,-5.46,9.35,-11.72,4.63,-8.76,28.31,110.0-120.0
110.0,1292.0,0.27,-1.16,10.79,4.94,-9.07,-1.69,28.31,110.0-120.0
110.0,1808.0,0.22,-1.54,11.03,4.4,-9.54,-2.03,28.33,110.0-120.0
110.0,2446.0,0.27,-1.93,10.84,3.87,-9.0,-2.44,28.32,110.0-120.0
110.0,0.0,-0.11,-2.28,11.05,3.43,-8.83,-2.91,28.3,110.0-120.0
110.0,0.0,-0.44,6.38,7.11,7.72,1.58,11.0,28.31,110.0-120.0
110.0,1339.0,-0.68,6.51,7.23,8.02,1.49,10.93,28.29,110.0-120.0
110.0,2926.0,-1.01,6.64,7.44,8.56,1.01,10.86,28.31,110.0-120.0
110.0,879.0,-1.06,6.73,7.37,8.94,1.06,10.77,28.32,110.0-120.0
110.0,1296.0,-1.76,-3.6,9.56,-10.5,8.87,-5.78,28.3,110.0-120.0
110.0,205.0,-1.83,-3.41,9.38,-10.37,9.39,-5.46,28.33,110.0-120.0
110.0,0.0,-2.08,-3.06,9.51,-10.41,9.51,-5.1,28.32,110.0-120.0
110.0,2863.0,-0.65,-4.23,11.72,-0.39,-8.98,-6.26,28.33,110.0-120.0
110.0,2927.0,-0.81,-4.37,11.79,-1.07,-9.38,-6.44,28.34,110.0-120.0
110.0,2927.0,-1.09,-4.52,11.79,-1.35,-8.43,-6.68,28.32,110.0-120.0
110.0,2240.0,-1.34,-4.67,11.87,-1.74,-8.1,-7.06,28.3,110.0-120.0
110.0,2032.0,-2.48,6.55,9.47,10.66,-2.13,10.71,28.3,110.0-120.0
110.0,128.0,-2.41,6.45,9.61,10.81,-2.39,10.5,28.34,110.0-120.0
110.0,0.0,-2.31,6.36,9.72,10.95,-2.82,9.93,28.32,110.0-120.0
110.0,1713.0,-2.08,6.27,9.85,11.41,-2.79,9.63,28.3,110.0-120.0
110.0,2910.0,-2.35,-0.41,9.09,-7.45,9.12,-1.05,28.32,110.0-120.0
110.0,1932.0,-2.19,-0.18,9.28,-7.22,9.13,-0.52,28.33,110.0-120.0
110.0,887.0,-2.27,0.08,9.13,-7.04,9.03,0.14,28.32,110.0-120.0
110.0,342.0,-1.96,0.45,8.9,-6.54,9.57,0.78,28.31,110.0-120.0
110.0,0.0,-1.08,-5.77,12.63,-5.76,-4.49,-9.49,28.32,110.0-120.0
110.0,2926.0,-0.98,-5.84,12.41,-6.02,-3.9,-9.67,28.31,110.0-120.0
110.0,2927.0,-0.43,-5.97,12.63,-6.75,-3.9,-10.03,28.3,110.0-120.0
110.0,2441.0,-0.52,-6.05,12.48,-6.99,-3.3,-10.33,28.33,110.0-120.0
110.0,2928.0,-0.13,5.0,9.99,11.09,-6.6,7.63,28.32,110.0-120.0
110.0,1782.0,-0.17,4.96,10.11,11.09,-7.47,7.2,28.34,110.0-120.0
110.0,0.0,0.51,4.86,9.66,11.59,-7.03,7.08,28.3,110.0-120.0
110.0,0.0,0.71,4.51,9.99,11.03,-8.31,6.76,28.32,110.0-120.0
110.0,2677.0,-0.86,2.67,8.58,-2.69,9.32,4.5,28.33,110.0-120.0
110.0,2864.0,-0.93,3.01,8.73,-2.22,8.75,5.11,28.31,110.0-120.0
110.0,2347.0,-1.02,3.21,8.6,-1.62,9.24,5.66,28.31,110.0-120.0
110.0,2395.0,-0.66,3.43,8.5,-1.2,9.03,5.91,28.32,110.0-120.0
110.0,0.0,1.64,-6.3,10.74,-9.92,0.25,-10.85,28.31,110.0-120.0
110.0,0.0,1.8,-6.3,10.59,-9.98,1.43,-11.0,28.32,110.0-120.0
110.0,2927.0,1.75,-6.24,10.44,-10.27,0.66,-11.02,28.33,110.0-120.0
110.0,2925.0,1.77,-6.23,9.9,-10.3,2.19,-10.94,28.32,110.0-120.0
110.0,2927.0,1.86,2.35,10.15,9.49,-9.9,3.36,28.3,110.0-120.0
110.0,2927.0,1.57,2.1,10.12,9.23,-9.67,3.02,28.32,110.0-120.0
110.0,1658.0,1.78,1.54,10.18,8.37,-10.02,2.62,28.33,110.0-120.0
110.0,1184.0,1.61,1.27,10.39,8.11,-9.79,2.27,28.33,110.0-120.0
110.0,1686.0,0.37,5.06,7.47,2.67,6.4,8.73,28.33,110.0-120.0
110.0,1280.0,0.5,5.22,7.35,2.92,6.02,9.05,28.3,110.0-120.0
110.0,2927.0,0.3,5.44,7.51,3.5,5.67,9.19,28.33,110.0-120.0
110.0,2928.0,0.42,5.53,7.22,4.04,5.07,9.17,28.32,110.0-120.0
110.0,1409.0,1.23,-5.62,9.21,-11.25,4.71,-9.49,28.31,110.0-120.0
110.0,0.0,1.03,-5.53,9.28,-11.43,4.87,-9.4,28.31,110.0-120.0
110.0,275.0,0.73,-5.55,9.36,-11.53,5.39,-9.0,28.31,110.0-120.0
110.0,2927.0,0.34,-5.34,9.42,-11.6,5.73,-8.54,28.31,110.0-120.0
110.0,2926.0,0.42,-1.26,10.8,4.85,-9.01,-1.62,28.32,110.0-120.0
110.0,2927.0,0.42,-1.54,10.91,4.39,-9.5,-1.88,28.3,110.0-120.0
110.0,992.0,0.56,-1.84,10.84,4.02,-9.42,-2.3,28.32,110.0-120.0
110.0,2926.0,0.24,-2.04,11.01,3.63,-9.18,-2.73,28.3,110.0-120.0
110.0,535.0,-0.56,6.4,7.2,7.56,1.88,10.88,28.31,110.0-120.0
110.0,0.0,-0.6,6.48,6.98,8.05,2.1,10.71,28.31,110.0-120.0
110.0,2305.0,-0.63,6.52,7.4,8.48,1.2,10.62,28.31,110.0-120.0
110.0,2469.0,-1.02,6.54,7.65,8.69,0.75,10.7,28.29,110.0-120.0
110.0,1488.0,-1.92,-3.7,9.54,-10.75,8.8,-6.13,28.31,110.0-120.0
110.0,939.0,-2.27,-3.58,9.7,-10.63,9.04,-5.54,28.32,110.0-120.0
110.0,0.0,-2.22,-3.4,9.62,-10.63,9.22,-5.07,28.32,110.0-120.0
110.0,830.0,-2.37,-2.97,9.51,-10.09,9.09,-4.39,28.33,110.0-120.0
110.0,2926.0,-0.54,-4.13,11.46,-0.3,-8.22,-5.95,28.32,110.0-120.0
110.0,2928.0,-0.86,-4.24,11.6,-0.63,-8.35,-6.52,28.32,110.0-120.0
110.0,2926.0,-0.81,-4.46,11.66,-1.21,-8.37,-7.05,28.32,110.0-120.0
110.0,2427.0,-0.85,-4.74,11.67,-1.78,-7.84,-7.77,28.3,110.0-120.0
110.0,199.0,-2.11,6.6,9.34,10.58,-2.53,10.31,28.3,110.0-120.0
110.0,507.0,-2.25,6.48,9.58,10.86,-3.11,10.24,28.29,110.0-120.0
110.0,1002.0,-2.28,6.43,9.96,10.8,-3.52,10.28,28.29,110.0-120.0
110.0,2675.0,-2.28,6.33,9.88,10.84,-3.81,10.45,28.31,110.0-120.0
110.0,2838.0,-2.61,-0.73,9.17,-7.68,10.46,-0.98,28.32,110.0-120.0
110.0,1670.0,-2.48,-0.47,8.99,-7.34,10.64,-0.43,28.3,110.0-120.0
110.0,1291.0,-2.24,-0.09,9.0,-6.84,10.55,-0.15,28.32,110.0-120.0
110.0,832.0,-2.18,0.15,8.96,-6.72,9.7,0.31,28.33,110.0-120.0
110.0,564.0,-0.7,-5.76,12.47,-5.7,-4.95,-9.83,28.31,110.0-120.0
110.0,2926.0,-0.75,-5.79,12.69,-6.05,-5.01,-10.13,28.3,110.0-120.0
110.0,2928.0,-0.63,-5.98,12.58,-6.43,-3.99,-10.41,28.29,110.0-120.0
110.0,2926.0,-0.6,-6.06,12.62,-6.72,-3.78,-10.48,28.29,110.0-120.0
110.0,1456.0,-0.51,5.39,9.86,11.58,-6.48,8.27,28.29,110.0-120.0
110.0,1999.0,-0.26,5.07,9.97,11.38,-6.68,8.13,28.3,110.0-120.0
110.0,400.0,0.07,4.95,9.91,11.32,-7.32,7.84,28.31,110.0-120.0
110.0,0.0,0.7,4.72,9.74,11.3,-7.5,7.57,28.32,110.0-120.0
110.0,1623.0,-1.14,2.6,8.6,-3.32,9.48,4.23,28.3,110.0-120.0
110.0,1791.0,-0.96,2.76,8.49,-2.74,9.93,4.49,28.3,110.0-120.0
110.0,2926.0,-0.64,3.08,8.7,-2.2,8.86,4.79,28.32,110.0-120.0
110.0,1498.0,-0.56,3.2,8.77,-2.19,8.11,5.05,28.33,110.0-120.0
110.0,0.0,1.08,-6.33,11.02,-9.36,0.48,-11.26,28.32,110.0-120.0
110.0,424.0,1.54,-6.37,11.0,-9.6,0.43,-11.12,28.32,110.0-120.0
110.0,2927.0,1.6,-6.35,10.67,-9.71,1.35,-10.93,28.31,110.0-120.0
110.0,2927.0,1.71,-6.26,10.25,-9.8,2.05,-10.76,28.31,110.0-120.0
110.0,1994.0,1.71,2.69,10.0,9.73,-9.56,4.1,28.32,110.0-120.0
110.0,913.0,1.57,2.35,10.37,9.12,-10.45,3.92,28.32,110.0-120.0
110.0,1052.0,1.37,2.07,10.23,8.94,-9.87,3.34,28.33,110.0-120.0
110.0,0.0,1.66,1.71,10.42,8.59,-10.12,2.64,28.33,110.0-120.0
110.0,0.0,0.34,4.83,7.61,2.15,6.78,8.22,28.31,110.0-120.0
110.0,1363.0,0.38,5.14,7.46,2.86,6.51,8.44,28.3,110.0-120.0
110.0,2162.0,0.4,5.24,7.27,3.43,6.55,8.61,28.31,110.0-120.0
110.0,1791.0,0.38,5.38,7.17,3.69,6.11,8.9,28.31,110.0-120.0
110.0,1401.0,1.66,-5.88,9.39,-11.69,3.61,-9.69,28.29,110.0-120.0
110.0,0.0,1.4,-5.9,9.07,-11.71,4.95,-9.25,28.3,110.0-120.0
110.0,888.0,0.98,-5.54,9.16,-11.68,5.61,-8.79,28.31,110.0-120.0
110.0,2927.0,0.44,-5.57,9.48,-12.04,5.2,-8.32,28.31,110.0-120.0
110.0,2928.0,0.55,-1.14,10.82,5.3,-9.83,-1.19,28.32,110.0-120.0
110.0,2150.0,0.66,-1.46,10.82,4.73,-9.88,-2.06,28.32,110.0-120.0
110.0,1403.0,0.11,-1.74,10.87,4.42,-8.74,-2.79,28.31,110.0-120.0
110.0,1022.0,0.29,-2.15,11.09,3.72,-9.88,-3.45,28.31,110.0-120.0
110.0,0.0,-0.24,6.46,7.05,7.5,2.11,10.47,28.3,110.0-120.0
110.0,249.0,-0.53,6.5,7.49,7.96,0.82,10.7,28.31,110.0-120.0
110.0,1535.0,-0.77,6.55,7.54,8.14,0.08,11.12,28.32,110.0-120.0
110.0,2364.0,-1.06,6.57,7.71,8.51,0.36,11.17,28.31,110.0-120.0
110.0,2394.0,-2.05,-3.53,9.53,-10.63,9.18,-5.16,28.31,110.0-120.0
110.0,179.0,-2.49,-3.23,9.59,-10.35,9.7,-4.84,28.31,110.0-120.0
110.0,0.0,-2.43,-3.04,9.62,-10.09,9.19,-4.5,28.3,110.0-120.0
110.0,585.0,-2.35,-2.74,9.74,-9.89,9.27,-4.27,28.31,110.0-120.0
110.0,2926.0,-0.97,-4.43,11.5,-0.94,-7.82,-7.2,28.32,110.0-120.0
110.0,2925.0,-0.95,-4.5,11.59,-1.04,-7.53,-7.63,28.32,110.0-120.0
110.0,1674.0,-0.94,-4.74,11.71,-1.58,-7.07,-7.95,28.33,110.0-120.0
110.0,343.0,-0.84,-4.88,11.89,-2.32,-7.42,-8.06,28.3,110.0-120.0
110.0,834.0,-2.33,6.42,9.94,10.84,-3.3,10.62,28.3,110.0-120.0
110.0,0.0,-1.93,6.17,9.81,10.42,-3.58,10.36,28.31,110.0-120.0
110.0,784.0,-1.88,6.14,10.04,10.84,-3.91,10.25,28.29,110.0-120.0
110.0,1314.0,-1.79,6.05,10.36,11.03,-5.27,10.03,28.32,110.0-120.0
110.0,1968.0,-2.87,0.17,9.01,-6.83,10.47,0.12,28.32,110.0-120.0
110.0,855.0,-2.37,0.47,9.01,-6.43,10.2,0.38,28.31,110.0-120.0
110.0,1217.0,-2.05,0.77,8.89,-5.73,10.28,0.76,28.29,110.0-120.0
110.0,0.0,-2.1,1.07,8.81,-5.3,10.32,1.36,28.32,110.0-120.0
110.0,0.0,-0.15,-6.02,12.42,-6.58,-3.7,-10.33,28.29,110.0-120.0
110.0,2926.0,-0.13,-6.06,12.37,-7.09,-3.03,-10.42,28.3,110.0-120.0
110.0,2926.0,0.08,-6.17,12.42,-7.7,-2.54,-10.33,28.28,110.0-120.0
110.0,784.0,0.0,-6.15,12.15,-8.05,-1.63,-10.35,28.32,110.0-120.0
110.0,1255.0,0.54,4.72,9.91,11.09,-8.16,7.52,28.31,110.0-120.0
110.0,2241.0,0.54,4.46,10.05,11.0,-8.35,7.16,28.28,110.0-120.0
110.0,573.0,1.18,4.2,10.04,10.68,-9.58,6.33,28.31,110.0-120.0
110.0,0.0,0.94,3.97,10.08,10.66,-9.36,6.0,28.3,110.0-120.0
110.0,614.0,-0.82,3.28,8.55,-1.74,8.8,5.0,28.32,110.0-120.0
110.0,2927.0,-0.83,3.46,8.46,-1.29,9.42,5.52,28.29,110.0-120.0
110.0,1606.0,-0.51,3.81,8.2,-0.66,9.07,6.04,28.32,110.0-120.0
110.0,1926.0,-0.41,4.11,8.12,0.01,8.72,6.64,28.32,110.0-120.0
110.0,0.0,2.2,-6.32,10.15,-10.05,1.33,-10.48,28.32,110.0-120.0
110.0,0.0,2.16,-6.29,9.96,-10.26,2.49,-10.51,28.3,110.0-120.0
110.0,2926.0,2.17,-6.25,9.79,-10.47,2.25,-10.22,28.33,110.0-120.0
110.0,2925.0,2.48,-6.13,9.47,-10.5,3.0,-10.19,28.31,110.0-120.0
110.0,1535.0,1.41,1.36,10.63,8.08,-11.09,2.38,28.3,110.0-120.0
110.0,913.0,1.52,1.02,10.69,7.73,-10.86,1.68,28.32,110.0-120.0
110.0,2339.0,1.38,0.67,10.82,7.32,-11.09,1.13,28.29,110.0-120.0
110.0,0.0,1.31,0.16,10.92,6.59,-10.92,0.63,28.31,110.0-120.0
110.0,1066.0,-0.01,5.75,6.93,3.82,5.96,9.2,28.31,110.0-120.0
110.0,2486.0,0.37,5.91,6.78,4.68,5.76,9.61,28.32,110.0-120.0
110.0,2677.0,0.37,5.91,6.64,5.21,5.74,9.84,28.31,110.0-120.0
110.0,2208.0,0.43,6.18,6.56,5.81,5.04,10.07,28.29,110.0-120.0
110.0,496.0,1.03,-5.32,9.11,-11.33,5.74,-8.13,28.29,110.0-120.0
110.0,0.0,0.48,-5.22,9.18,-11.37,5.97,-7.93,28.29,110.0-120.0
110.0,1036.0,0.23,-4.94,9.29,-11.02,6.81,-7.83,28.28,110.0-120.0
110.0,2927.0,-0.33,-4.73,9.34,-11.11,7.15,-7.43,28.31,110.0-120.0
110.0,2925.0,-0.43,-2.38,11.28,2.85,-9.59,-3.71,28.31,110.0-120.0
110.0,2735.0,-0.67,-2.67,11.14,2.42,-9.19,-4.0,28.3,110.0-120.0
110.0,2175.0,-0.41,-3.03,11.27,1.64,-9.71,-4.58,28.28,110.0-120.0
110.0,1783.0,-0.57,-3.3,11.3,1.14,-9.32,-4.93,28.29,110.0-120.0
110.0,279.0,-1.26,6.7,7.68,9.33,0.77,11.08,28.27,110.0-120.0
110.0,1037.0,-1.23,6.67,7.7,9.68,0.39,11.12,28.29,110.0-120.0
110.0,1517.0,-1.38,6.71,8.17,9.94,-0.16,11.05,28.3,110.0-120.0
110.0,2928.0,-1.75,6.69,8.62,10.22,-0.66,10.94,28.29,110.0-120.0
110.0,2385.0,-2.65,-2.71,9.79,-10.15,8.81,-3.85,28.28,110.0-120.0
110.0,1170.0,-2.9,-2.27,9.85,-9.69,9.21,-3.39,28.29,110.0-120.0
110.0,0.0,-2.94,-1.98,9.42,-9.21,9.82,-2.88,28.3,110.0-120.0
110.0,1601.0,-2.61,-1.66,9.45,-8.86,9.62,-2.32,28.31,110.0-120.0
110.0,2927.0,-1.27,-4.85,11.82,-2.58,-6.52,-8.33,28.31,110.0-120.0
110.0,2928.0,-1.17,-5.14,12.04,-3.47,-5.94,-8.83,28.29,110.0-120.0
110.0,2928.0,-1.19,-5.2,12.16,-3.74,-5.82,-8.85,28.3,110.0-120.0
110.0,885.0,-1.09,-5.37,12.18,-4.31,-5.26,-9.08,28.3,110.0-120.0
110.0,1927.0,-1.7,5.94,10.24,11.23,-5.21,9.83,28.29,110.0-120.0
110.0,1203.0,-1.37,5.74,10.27,11.16,-5.62,9.46,28.28,110.0-120.0
