Speed,Voice,Acceleration X,Acceleration Y,Acceleration Z,Gyro X,Gyro Y,Gyro Z,Temperature,Speed_Range
120.0,1267.0,-0.15,4.19,5.0,7.04,15.88,2.34,17.73,120.0-130.0
120.0,2928.0,0.17,-6.01,10.32,-3.53,18.74,-4.2,17.72,120.0-130.0
120.0,2835.0,-4.42,-12.3,10.87,-10.56,16.94,-9.56,17.75,120.0-130.0
120.0,2884.0,-1.84,2.83,12.5,3.79,-19.9,3.81,17.74,120.0-130.0
120.0,2929.0,5.45,11.42,5.38,16.23,-8.5,7.7,17.74,120.0-130.0
120.0,0.0,5.77,16.72,2.07,23.91,3.42,8.86,17.72,120.0-130.0
120.0,0.0,-3.8,15.69,5.81,19.6,8.59,8.25,17.72,120.0-130.0
120.0,2928.0,-3.43,-9.92,10.81,-9.47,11.02,-6.63,17.72,120.0-130.0
120.0,2928.0,1.46,-12.05,10.29,-17.28,-1.42,-8.84,17.74,120.0-130.0
120.0,2512.0,1.15,-12.74,13.37,-21.23,-8.16,-8.71,17.72,120.0-130.0
120.0,2777.0,1.05,-11.85,15.32,-19.8,-10.7,-6.8,17.73,120.0-130.0
120.0,2678.0,1.65,11.57,4.21,15.51,0.15,4.89,17.74,120.0-130.0
120.0,1148.0,0.88,12.58,4.82,16.82,2.3,4.34,17.73,120.0-130.0
120.0,0.0,-1.28,11.92,8.1,14.31,1.78,4.14,17.72,120.0-130.0
120.0,0.0,-3.71,10.45,9.23,12.74,5.05,4.63,17.74,120.0-130.0
120.0,2927.0,-1.29,-9.26,10.86,-12.46,5.37,-8.72,17.76,120.0-130.0
120.0,2593.0,-1.86,-10.38,11.41,-14.1,0.78,-7.39,17.73,120.0-130.0
120.0,2928.0,-0.74,-10.75,11.53,-14.17,-0.44,-6.37,17.72,120.0-130.0
120.0,0.0,0.12,-10.78,11.74,-15.08,-4.21,-5.71,17.73,120.0-130.0
120.0,2931.0,2.39,6.99,7.74,11.24,-6.06,7.18,17.75,120.0-130.0
120.0,767.0,1.41,8.82,5.53,13.16,-1.98,6.23,17.72,120.0-130.0
120.0,1515.0,2.34,9.66,5.48,14.05,-1.5,5.1,17.72,120.0-130.0
120.0,0.0,1.51,10.53,4.98,14.49,0.27,4.07,17.71,120.0-130.0
120.0,0.0,-1.59,-1.04,9.22,0.09,12.66,-3.94,17.72,120.0-130.0
120.0,2928.0,-3.03,-1.75,9.59,-1.5,12.65,-4.78,17.71,120.0-130.0
120.0,2901.0,-2.95,-2.97,9.47,-3.8,13.11,-5.35,17.71,120.0-130.0
120.0,2928.0,-2.02,-4.57,10.27,-7.06,8.94,-5.52,17.72,120.0-130.0
120.0,1616.0,2.98,-4.61,11.61,-4.26,-10.77,1.81,17.74,120.0-130.0
120.0,1047.0,1.56,-3.29,11.52,-2.75,-10.03,2.11,17.75,120.0-130.0
120.0,2929.0,1.07,-1.97,11.17,-0.52,-10.13,2.56,17.73,120.0-130.0
120.0,2015.0,1.74,-1.2,11.21,0.71,-10.65,2.62,17.72,120.0-130.0
120.0,620.0,-2.64,9.27,7.27,13.35,9.84,4.04,17.73,120.0-130.0
120.0,0.0,-1.9,8.75,7.56,12.78,10.28,3.27,17.72,120.0-130.0
120.0,0.0,-2.8,8.46,7.51,11.67,10.94,2.53,17.73,120.0-130.0
120.0,2928.0,-2.41,8.37,6.94,11.79,12.45,2.36,17.76,120.0-130.0
120.0,2928.0,-0.37,-9.98,13.13,-15.69,-2.91,-5.9,17.73,120.0-130.0
120.0,2782.0,-0.5,-10.04,12.58,-15.52,-1.91,-5.26,17.72,120.0-130.0
120.0,2714.0,-0.35,-10.25,12.75,-15.49,-4.23,-5.03,17.74,120.0-130.0
120.0,0.0,-0.39,-10.46,12.96,-15.26,-4.0,-5.26,17.74,120.0-130.0
120.0,901.0,1.57,3.39,9.19,5.82,-7.74,4.22,17.73,120.0-130.0
120.0,2495.0,1.07,3.83,9.36,7.21,-8.51,4.3,17.75,120.0-130.0
120.0,1463.0,0.57,4.46,9.08,8.57,-5.02,4.2,17.77,120.0-130.0
120.0,591.0,0.85,4.97,9.03,9.71,-3.62,4.28,17.73,120.0-130.0
120.0,0.0,-2.34,4.89,8.51,5.55,10.59,-0.19,17.72,120.0-130.0
120.0,0.0,-2.66,4.6,8.13,4.8,10.39,0.05,17.73,120.0-130.0
120.0,2928.0,-1.81,4.02,8.25,3.86,9.32,0.25,17.73,120.0-130.0
120.0,2928.0,-1.12,3.39,8.03,3.09,9.89,0.45,17.72,120.0-130.0
120.0,2929.0,0.73,-9.7,12.23,-15.69,-9.32,-5.23,17.74,120.0-130.0
120.0,2349.0,0.55,-9.73,11.79,-15.02,-6.56,-5.65,17.72,120.0-130.0
120.0,1281.0,0.62,-9.84,11.9,-14.44,-8.07,-5.76,17.73,120.0-130.0
120.0,171.0,0.94,-9.9,12.35,-14.15,-8.1,-5.61,17.73,120.0-130.0
120.0,2928.0,1.43,7.49,7.26,13.28,-1.85,4.88,17.74,120.0-130.0
120.0,2928.0,1.55,8.03,6.57,13.85,0.5,4.97,17.73,120.0-130.0
120.0,774.0,1.46,8.54,6.07,14.31,0.2,5.64,17.74,120.0-130.0
120.0,0.0,0.61,9.52,5.49,15.1,0.17,6.0,17.72,120.0-130.0
120.0,0.0,0.02,0.06,8.57,0.85,10.54,-0.6,17.75,120.0-130.0
120.0,2079.0,-1.19,-0.24,9.16,-0.54,10.79,-1.44,17.74,120.0-130.0
120.0,2928.0,-2.66,-0.67,9.41,-1.5,11.21,-2.37,17.73,120.0-130.0
120.0,2928.0,-2.12,-1.54,9.49,-1.58,12.16,-2.97,17.74,120.0-130.0
120.0,2927.0,1.23,-8.72,14.15,-13.17,-15.53,-2.16,17.72,120.0-130.0
120.0,773.0,1.98,-8.41,14.17,-11.69,-13.86,-1.82,17.74,120.0-130.0
120.0,229.0,1.49,-7.77,13.22,-10.47,-13.14,-1.27,17.74,120.0-130.0
120.0,2111.0,1.99,-7.87,13.31,-10.21,-12.7,-0.83,17.75,120.0-130.0
120.0,1637.0,0.17,10.25,5.25,13.77,2.43,4.39,17.73,120.0-130.0
120.0,1205.0,0.2,10.44,5.51,13.91,2.9,4.71,17.73,120.0-130.0
120.0,0.0,-0.08,10.51,5.75,14.19,3.91,4.84,17.74,120.0-130.0
120.0,0.0,-0.37,10.6,5.99,14.38,4.82,4.74,17.73,120.0-130.0
120.0,2554.0,-2.58,-4.82,11.32,-6.86,9.41,-4.92,17.76,120.0-130.0
120.0,2928.0,-1.64,-5.49,11.32,-7.01,6.7,-5.04,17.74,120.0-130.0
120.0,2928.0,-1.58,-5.92,11.73,-8.43,6.09,-5.3,17.74,120.0-130.0
120.0,2416.0,-1.66,-6.37,11.15,-8.69,6.88,-5.33,17.73,120.0-130.0
120.0,0.0,2.27,-3.52,11.99,-3.7,-13.92,2.34,17.73,120.0-130.0
120.0,2448.0,2.18,-2.79,11.43,-2.42,-11.7,2.97,17.74,120.0-130.0
120.0,2170.0,2.8,-1.92,11.32,-1.3,-13.43,3.59,17.73,120.0-130.0
120.0,1577.0,2.26,-0.91,10.85,-0.28,-11.99,3.47,17.73,120.0-130.0
120.0,247.0,-2.75,9.41,6.43,12.52,10.59,2.54,17.72,120.0-130.0
120.0,0.0,-3.05,9.27,6.74,11.62,12.07,1.7,17.75,120.0-130.0
120.0,0.0,-3.04,8.57,7.56,10.13,10.44,1.17,17.73,120.0-130.0
120.0,2896.0,-3.37,7.94,7.93,8.37,11.43,0.54,17.74,120.0-130.0
120.0,2928.0,-0.2,-9.58,11.16,-12.29,0.56,-6.81,17.73,120.0-130.0
120.0,1502.0,0.34,-9.57,10.72,-12.09,-0.03,-6.8,17.76,120.0-130.0
120.0,725.0,1.08,-9.95,11.02,-12.75,-2.05,-6.46,17.72,120.0-130.0
120.0,0.0,1.22,-10.0,10.89,-13.28,-3.69,-5.71,17.73,120.0-130.0
120.0,966.0,1.35,5.89,9.03,10.08,-5.25,6.29,17.74,120.0-130.0
120.0,2928.0,0.66,7.43,7.85,12.17,-3.65,6.2,17.72,120.0-130.0
120.0,800.0,1.21,8.33,7.85,13.24,-3.08,5.91,17.73,120.0-130.0
120.0,535.0,1.43,9.3,6.86,14.86,-0.18,5.67,17.73,120.0-130.0
120.0,0.0,-1.62,-0.56,9.19,-0.94,11.02,-2.48,17.74,120.0-130.0
120.0,2927.0,-1.92,-1.7,9.39,-1.73,11.79,-2.91,17.74,120.0-130.0
120.0,2928.0,-2.04,-2.8,10.23,-3.35,9.8,-3.07,17.75,120.0-130.0
120.0,2367.0,-2.49,-3.99,10.79,-5.27,10.3,-3.87,17.73,120.0-130.0
120.0,1326.0,2.97,-6.32,13.05,-9.33,-15.78,-0.33,17.74,120.0-130.0
120.0,1264.0,2.15,-5.0,13.12,-7.44,-15.61,0.02,17.72,120.0-130.0
120.0,2173.0,1.62,-3.68,12.07,-4.89,-13.28,0.27,17.72,120.0-130.0
120.0,2082.0,-1.92,10.35,6.25,13.83,8.15,2.91,17.73,120.0-130.0
120.0,551.0,-2.66,9.82,6.69,12.77,9.26,2.56,17.74,120.0-130.0
120.0,0.0,-3.22,9.17,7.14,11.87,8.97,2.69,17.74,120.0-130.0
120.0,0.0,-3.23,9.08,6.34,12.06,12.97,2.71,17.74,120.0-130.0
120.0,2846.0,-0.28,-10.37,12.84,-12.82,-1.33,-4.97,17.74,120.0-130.0
120.0,2928.0,0.42,-9.89,10.98,-11.3,0.61,-4.68,17.74,120.0-130.0
120.0,2928.0,2.83,-9.34,8.89,-10.37,-0.79,-5.23,17.72,120.0-130.0
120.0,705.0,2.63,-9.2,8.36,-12.12,-3.69,-6.74,17.74,120.0-130.0
120.0,0.0,1.21,6.6,9.35,12.96,-3.42,7.41,17.71,120.0-130.0
120.0,2928.0,1.38,8.14,8.06,14.23,-1.98,6.46,17.72,120.0-130.0
120.0,1373.0,0.99,9.16,6.18,15.89,2.79,5.2,17.75,120.0-130.0
120.0,0.0,1.73,10.22,4.98,17.39,3.2,5.07,17.73,120.0-130.0
120.0,0.0,-0.62,-2.88,10.58,-3.73,7.51,-2.08,17.72,120.0-130.0
120.0,1879.0,-0.72,-4.63,12.02,-5.74,5.8,-2.33,17.73,120.0-130.0
120.0,2928.0,-2.62,-6.19,13.65,-7.09,6.48,-2.77,17.74,120.0-130.0
120.0,2930.0,-3.0,-7.51,14.08,-7.33,6.12,-3.2,17.74,120.0-130.0
120.0,2672.0,0.85,-4.3,13.91,-7.51,-18.72,1.93,17.73,120.0-130.0
120.0,857.0,2.07,-2.34,12.56,-2.32,-17.23,4.16,17.74,120.0-130.0
120.0,1935.0,1.63,0.55,12.21,2.18,-15.43,5.99,17.74,120.0-130.0
120.0,1718.0,0.92,4.24,9.85,8.33,-9.31,6.71,17.73,120.0-130.0
120.0,0.0,-3.02,4.24,8.72,4.63,9.28,1.26,17.73,120.0-130.0
120.0,0.0,-1.88,2.18,8.5,2.31,10.48,-0.1,17.74,120.0-130.0
120.0,2759.0,-1.17,-0.39,9.55,-0.92,9.46,-1.55,17.72,120.0-130.0
120.0,2928.0,-1.61,-3.35,10.71,-3.99,11.25,-3.06,17.71,120.0-130.0
120.0,1825.0,-0.43,-7.95,15.27,-14.93,-14.71,-3.94,17.71,120.0-130.0
120.0,1651.0,0.31,-6.98,14.94,-11.51,-16.65,-0.69,17.73,120.0-130.0
120.0,2207.0,1.34,-4.99,13.85,-6.2,-16.77,2.91,17.71,120.0-130.0
120.0,1870.0,2.16,-2.16,11.92,-0.39,-11.89,4.72,17.72,120.0-130.0
120.0,208.0,-5.45,8.69,10.17,8.78,7.42,3.72,17.72,120.0-130.0
120.0,0.0,-5.19,7.23,9.21,8.25,10.18,3.01,17.73,120.0-130.0
120.0,0.0,-2.55,4.82,9.24,6.66,8.74,2.13,17.72,120.0-130.0
120.0,2928.0,-3.01,3.95,7.97,6.08,10.02,1.88,17.71,120.0-130.0
120.0,2624.0,1.02,-11.79,15.69,-17.95,-8.73,-6.29,17.71,120.0-130.0
120.0,2928.0,-0.46,-11.08,15.93,-18.25,-13.35,-4.42,17.71,120.0-130.0
120.0,0.0,1.12,-10.0,15.61,-15.69,-13.2,-2.95,17.71,120.0-130.0
120.0,2687.0,1.43,-9.17,14.58,-13.94,-15.84,-1.88,17.74,120.0-130.0
120.0,2928.0,0.94,11.06,5.51,14.55,2.49,5.24,17.73,120.0-130.0
120.0,691.0,-0.25,11.16,5.83,14.05,2.73,4.94,17.72,120.0-130.0
120.0,0.0,-2.06,11.76,4.93,14.81,6.97,4.08,17.73,120.0-130.0
120.0,0.0,-2.51,11.31,5.43,13.71,7.89,2.94,17.72,120.0-130.0
120.0,1842.0,-1.67,-7.07,11.76,-6.84,8.88,-5.33,17.71,120.0-130.0
120.0,2927.0,-1.42,-8.06,11.49,-8.55,5.89,-5.65,17.74,120.0-130.0
120.0,2337.0,-0.39,-8.28,10.2,-8.84,3.66,-5.65,17.72,120.0-130.0
120.0,2480.0,0.94,-8.52,9.8,-9.88,1.88,-6.6,17.73,120.0-130.0
120.0,0.0,1.79,2.23,10.16,6.63,-7.57,5.73,17.73,120.0-130.0
120.0,2928.0,1.37,4.37,9.77,9.67,-7.05,5.7,17.73,120.0-130.0
120.0,2704.0,0.5,6.09,7.72,11.23,-1.94,4.55,17.74,120.0-130.0
120.0,1167.0,1.97,6.93,7.32,12.16,-3.57,4.8,17.72,120.0-130.0
120.0,0.0,-1.23,3.14,7.22,5.18,10.82,1.11,17.72,120.0-130.0
120.0,0.0,0.97,1.42,8.06,3.32,10.85,-0.07,17.71,120.0-130.0
120.0,2928.0,-1.59,0.84,8.17,1.8,10.25,-0.77,17.73,120.0-130.0
120.0,2928.0,-2.11,0.34,8.86,1.87,12.05,-1.61,17.74,120.0-130.0
120.0,2928.0,2.24,-10.08,14.21,-12.67,-12.62,-1.0,17.72,120.0-130.0
120.0,1840.0,3.26,-8.95,13.29,-10.52,-12.92,0.14,17.72,120.0-130.0
120.0,400.0,3.71,-7.95,13.39,-9.54,-14.1,0.56,17.72,120.0-130.0
120.0,2928.0,2.64,-7.02,12.83,-7.91,-12.94,0.5,17.74,120.0-130.0
120.0,2653.0,-1.54,10.58,7.71,13.21,3.16,4.75,17.72,120.0-130.0
120.0,1712.0,-1.37,9.88,8.64,11.77,2.36,4.31,17.73,120.0-130.0
120.0,0.0,-1.73,10.12,7.82,11.7,2.84,4.33,17.75,120.0-130.0
120.0,0.0,-1.48,10.08,8.0,11.16,5.66,3.67,17.74,120.0-130.0
120.0,1089.0,-2.5,-5.99,10.37,-8.25,9.57,-6.34,17.71,120.0-130.0
120.0,2928.0,-1.09,-6.45,10.73,-8.89,7.09,-6.22,17.72,120.0-130.0
120.0,2928.0,-2.5,-6.6,10.49,-9.6,4.06,-6.28,17.74,120.0-130.0
120.0,2928.0,-1.84,-7.09,10.72,-9.3,4.85,-6.34,17.72,120.0-130.0
120.0,1409.0,2.6,-1.83,10.69,1.02,-10.1,3.26,17.72,120.0-130.0
120.0,1217.0,2.26,-0.84,11.0,2.47,-9.54,3.62,17.72,120.0-130.0
120.0,2738.0,1.58,0.19,9.97,3.9,-7.54,3.65,17.72,120.0-130.0
120.0,1518.0,1.67,1.19,10.37,4.56,-8.21,3.93,17.73,120.0-130.0
120.0,976.0,-2.43,7.65,7.71,9.97,11.0,3.26,17.73,120.0-130.0
120.0,0.0,-1.59,7.29,7.91,9.68,9.84,2.98,17.71,120.0-130.0
120.0,0.0,-1.94,7.11,7.64,9.09,11.0,2.45,17.71,120.0-130.0
120.0,2757.0,-2.01,6.29,7.55,8.26,12.07,1.96,17.73,120.0-130.0
120.0,2928.0,-0.24,-10.61,13.05,-16.68,-5.81,-5.97,17.74,120.0-130.0
120.0,2928.0,0.01,-11.07,13.78,-17.1,-7.39,-5.7,17.75,120.0-130.0
120.0,2928.0,-0.07,-11.02,14.09,-16.3,-8.48,-5.18,17.72,120.0-130.0
120.0,410.0,0.38,-10.72,13.93,-15.62,-8.03,-5.13,17.73,120.0-130.0
120.0,1522.0,1.23,6.54,7.82,10.89,-3.25,4.28,17.71,120.0-130.0
120.0,2928.0,1.24,7.14,7.36,12.05,-0.98,4.81,17.72,120.0-130.0
120.0,2175.0,1.64,7.75,6.82,12.98,-1.66,5.46,17.71,120.0-130.0
120.0,427.0,1.77,8.54,6.15,13.61,-2.15,6.34,17.73,120.0-130.0
120.0,0.0,-1.76,0.98,8.32,2.41,12.13,0.3,17.72,120.0-130.0
120.0,0.0,-0.43,0.33,8.51,1.52,12.65,-0.6,17.7,120.0-130.0
120.0,2926.0,-1.22,-0.3,9.38,-0.23,10.33,-1.82,17.72,120.0-130.0
120.0,2929.0,-1.9,-1.06,9.7,-1.0,9.77,-3.21,17.73,120.0-130.0
120.0,2928.0,1.13,-8.93,14.47,-13.59,-14.34,-3.61,17.71,120.0-130.0
120.0,2928.0,1.75,-8.74,14.03,-12.06,-13.69,-2.45,17.73,120.0-130.0
120.0,383.0,2.42,-7.92,13.38,-10.23,-13.7,-0.8,17.73,120.0-130.0
120.0,2928.0,3.07,-7.55,12.9,-9.33,-12.65,0.28,17.74,120.0-130.0
120.0,2883.0,-1.09,10.55,5.7,13.39,3.59,5.41,17.74,120.0-130.0
120.0,1274.0,-1.26,10.48,6.3,13.91,5.87,5.61,17.74,120.0-130.0
120.0,1710.0,-0.74,10.23,7.07,13.28,3.94,5.42,17.74,120.0-130.0
120.0,0.0,-1.82,10.32,7.46,12.52,4.7,4.59,17.74,120.0-130.0
120.0,2215.0,-1.89,-6.1,11.03,-7.77,7.54,-5.81,17.72,120.0-130.0
120.0,2925.0,-1.49,-6.59,11.31,-8.76,5.32,-6.57,17.73,120.0-130.0
120.0,2928.0,-1.67,-7.11,11.19,-10.06,4.81,-7.04,17.73,120.0-130.0
120.0,2928.0,-1.07,-7.56,10.97,-10.88,3.08,-6.81,17.74,120.0-130.0
120.0,1435.0,1.73,-1.17,10.98,0.45,-11.63,2.89,17.72,120.0-130.0
120.0,990.0,1.96,-0.57,10.96,1.67,-10.61,3.72,17.72,120.0-130.0
120.0,2928.0,1.5,0.08,10.37,2.86,-7.45,4.04,17.73,120.0-130.0
120.0,1773.0,1.54,0.97,10.16,3.96,-9.34,4.25,17.72,120.0-130.0
120.0,1714.0,-2.86,7.69,8.45,9.64,10.51,3.15,17.73,120.0-130.0
120.0,0.0,-3.13,7.72,7.74,10.2,9.86,2.3,17.74,120.0-130.0
120.0,0.0,-2.38,6.97,7.68,9.65,11.66,1.4,17.74,120.0-130.0
120.0,2928.0,-2.26,6.34,8.11,8.83,9.54,1.34,17.7,120.0-130.0
120.0,2928.0,-0.24,-10.41,12.75,-15.74,-5.26,-6.61,17.73,120.0-130.0
120.0,2708.0,-0.11,-10.72,13.24,-15.92,-6.73,-5.67,17.73,120.0-130.0
120.0,2927.0,-0.35,-10.42,12.91,-15.69,-6.23,-4.63,17.73,120.0-130.0
120.0,0.0,0.53,-10.28,13.17,-15.39,-6.2,-4.05,17.75,120.0-130.0
120.0,2057.0,0.78,6.53,7.52,10.28,-2.7,5.64,17.73,120.0-130.0
120.0,2928.0,1.57,7.07,7.21,11.24,-2.11,5.35,17.72,120.0-130.0
120.0,1907.0,1.36,7.31,6.99,11.41,-2.55,4.6,17.73,120.0-130.0
120.0,463.0,1.18,7.63,7.03,11.94,-3.02,4.19,17.7,120.0-130.0
120.0,0.0,-1.6,1.82,8.16,2.62,11.21,-2.13,17.73,120.0-130.0
120.0,0.0,-1.3,1.02,8.76,1.55,9.72,-2.31,17.73,120.0-130.0
120.0,2927.0,-1.53,0.52,8.69,0.94,12.94,-2.22,17.72,120.0-130.0
120.0,2927.0,-1.29,0.01,9.09,0.47,10.63,-1.78,17.7,120.0-130.0
120.0,2928.0,0.72,-9.4,14.2,-14.03,-11.58,-2.24,17.72,120.0-130.0
120.0,2768.0,1.12,-8.94,13.9,-12.75,-11.86,-0.94,17.71,120.0-130.0
120.0,0.0,1.75,-8.54,13.72,-12.15,-12.12,-0.33,17.72,120.0-130.0
120.0,2928.0,2.12,-8.17,13.35,-11.36,-11.95,-0.45,17.73,120.0-130.0
120.0,2928.0,0.58,10.76,5.09,14.55,2.01,4.84,17.74,120.0-130.0
120.0,975.0,-0.44,11.04,4.86,14.89,4.97,3.62,17.72,120.0-130.0
120.0,832.0,-0.68,10.74,5.97,14.23,4.41,3.03,17.73,120.0-130.0
120.0,0.0,-1.29,10.32,7.19,13.32,4.12,3.14,17.72,120.0-130.0
120.0,785.0,-1.61,-4.98,10.81,-7.06,6.8,-6.28,17.71,120.0-130.0
120.0,2480.0,-2.08,-5.94,11.03,-8.58,7.86,-6.07,17.72,120.0-130.0
120.0,2928.0,-1.87,-6.68,11.16,-8.83,8.04,-5.17,17.71,120.0-130.0
120.0,2927.0,-2.03,-6.79,11.14,-8.64,6.79,-4.78,17.73,120.0-130.0
120.0,2512.0,3.91,-3.41,11.45,-3.04,-14.21,3.82,17.73,120.0-130.0
120.0,752.0,3.97,-2.67,11.1,-1.56,-13.81,3.69,17.73,120.0-130.0
120.0,2791.0,2.95,-1.45,11.0,0.51,-12.19,3.7,17.72,120.0-130.0
120.0,2928.0,2.57,-0.22,10.35,2.8,-10.51,3.35,17.72,120.0-130.0
120.0,0.0,-3.79,7.75,8.59,9.33,8.1,1.66,17.72,120.0-130.0
120.0,0.0,-3.08,7.42,7.89,9.71,9.23,2.24,17.72,120.0-130.0
120.0,0.0,-1.68,6.51,7.97,8.59,10.13,2.08,17.7,120.0-130.0
120.0,2704.0,-2.32,6.01,8.13,7.18,8.9,2.2,17.7,120.0-130.0
120.0,2928.0,0.24,-10.31,12.85,-16.29,-5.86,-6.14,17.73,120.0-130.0
120.0,2480.0,-0.94,-10.69,13.74,-17.32,-9.99,-5.7,17.72,120.0-130.0
120.0,2925.0,-0.36,-11.33,14.16,-17.23,-8.15,-5.04,17.71,120.0-130.0
120.0,0.0,0.86,-11.4,14.84,-16.79,-10.7,-4.25,17.71,120.0-130.0
120.0,2928.0,1.97,7.38,6.41,10.74,-3.98,4.48,17.69,120.0-130.0
120.0,1861.0,1.65,8.07,6.12,11.82,-2.7,4.46,17.72,120.0-130.0
120.0,1392.0,1.33,8.58,5.59,12.45,-2.01,4.65,17.7,120.0-130.0
120.0,707.0,1.61,8.71,5.83,12.48,-1.28,4.84,17.72,120.0-130.0
120.0,0.0,-2.38,0.76,8.5,1.99,13.87,-2.11,17.73,120.0-130.0
120.0,455.0,-2.07,0.07,9.57,0.35,11.66,-2.13,17.72,120.0-130.0
120.0,2928.0,-2.82,-0.96,9.52,-1.36,13.5,-2.62,17.71,120.0-130.0
120.0,2928.0,-2.44,-1.81,10.3,-2.25,11.03,-2.74,17.71,120.0-130.0
120.0,2928.0,2.32,-7.92,13.6,-11.92,-13.98,-1.26,17.7,120.0-130.0
120.0,1094.0,2.47,-7.57,13.97,-11.98,-14.45,-1.43,17.7,120.0-130.0
120.0,1535.0,2.0,-7.43,13.64,-11.42,-13.34,-1.53,17.7,120.0-130.0
120.0,2928.0,2.34,-7.32,13.87,-10.58,-16.11,-0.98,17.71,120.0-130.0
120.0,2132.0,-0.05,10.4,4.92,12.6,4.97,1.55,17.7,120.0-130.0
120.0,1507.0,-0.93,9.95,6.57,11.56,2.43,2.3,17.69,120.0-130.0
120.0,0.0,-1.56,9.71,7.67,10.78,3.88,3.2,17.7,120.0-130.0
120.0,0.0,-2.38,9.75,8.48,10.58,4.23,3.97,17.72,120.0-130.0
120.0,2928.0,-1.68,-6.11,9.87,-7.24,8.64,-5.68,17.72,120.0-130.0
120.0,2914.0,-1.47,-6.8,9.9,-8.79,6.09,-5.93,17.72,120.0-130.0
120.0,2928.0,-1.03,-7.79,10.46,-10.88,3.3,-6.13,17.71,120.0-130.0
120.0,2928.0,-0.4,-8.55,11.31,-12.65,0.29,-6.48,17.72,120.0-130.0
120.0,353.0,1.47,1.0,10.04,3.98,-6.97,3.4,17.71,120.0-130.0
120.0,2929.0,1.91,1.91,9.74,5.52,-6.85,3.15,17.7,120.0-130.0
120.0,2928.0,0.66,2.94,9.72,6.22,-6.64,3.27,17.7,120.0-130.0
120.0,1954.0,0.21,3.67,9.09,7.62,-5.04,3.47,17.71,120.0-130.0
120.0,773.0,-1.13,6.02,7.93,7.52,9.02,1.87,17.72,120.0-130.0
120.0,0.0,-1.0,5.55,7.77,7.0,9.86,1.84,17.71,120.0-130.0
120.0,15.0,-1.28,5.24,7.76,6.62,10.22,1.81,17.7,120.0-130.0
120.0,2928.0,-2.56,4.99,7.27,6.59,12.21,1.58,17.71,120.0-130.0
120.0,2928.0,0.56,-10.74,13.35,-15.1,-7.14,-4.22,17.7,120.0-130.0
120.0,2928.0,1.08,-10.6,14.1,-15.65,-9.25,-4.37,17.7,120.0-130.0
120.0,2715.0,-0.28,-10.57,14.61,-16.1,-9.29,-4.86,17.7,120.0-130.0
120.0,689.0,0.29,-10.85,14.51,-15.72,-9.86,-4.91,17.7,120.0-130.0
120.0,2928.0,0.38,7.58,6.81,10.97,-3.83,3.76,17.7,120.0-130.0
120.0,2132.0,0.41,7.76,6.87,11.65,-3.48,4.07,17.71,120.0-130.0
120.0,1180.0,1.55,8.27,6.34,11.76,-2.23,4.45,17.71,120.0-130.0
120.0,1211.0,2.14,8.26,6.21,10.94,-2.64,4.33,17.69,120.0-130.0
120.0,0.0,-2.69,2.09,7.93,2.76,15.61,-1.98,17.72,120.0-130.0
120.0,363.0,-2.59,1.4,8.76,2.07,14.1,-1.96,17.72,120.0-130.0
120.0,2928.0,-2.53,0.73,8.48,1.54,13.56,-1.98,17.71,120.0-130.0
