Speed,Voice,Acceleration X,Acceleration Y,Acceleration Z,Gyro X,Gyro Y,Gyro Z,Temperature,Speed_Range
120.0,1386.0,-0.07,-0.02,9.78,0.09,0.05,-0.1,18.31,120.0-130.0
120.0,1577.0,-0.09,-0.03,9.84,0.04,-0.03,-0.1,18.29,120.0-130.0
120.0,1712.0,-0.08,-0.0,9.78,0.01,0.05,0.04,18.32,120.0-130.0
120.0,1229.0,-0.06,0.01,9.79,0.18,-0.09,0.04,18.3,120.0-130.0
120.0,1615.0,-0.08,-0.02,9.79,0.04,-0.0,0.02,18.31,120.0-130.0
120.0,1646.0,-0.07,0.03,9.8,0.07,-0.02,0.02,18.32,120.0-130.0
120.0,1455.0,-0.1,0.01,9.84,0.16,-0.05,-0.04,18.32,120.0-130.0
120.0,1200.0,-0.08,0.0,9.82,0.13,0.01,-0.04,18.32,120.0-130.0
120.0,1369.0,-0.09,-0.01,9.83,0.16,-0.02,-0.05,18.3,120.0-130.0
120.0,1360.0,-0.09,0.02,9.78,0.06,0.01,-0.05,18.31,120.0-130.0
120.0,1303.0,-0.09,-0.02,9.8,0.04,-0.02,-0.13,18.29,120.0-130.0
120.0,1325.0,-0.08,-0.03,9.77,0.01,-0.03,0.07,18.31,120.0-130.0
120.0,1229.0,-0.06,-0.01,9.79,0.09,0.05,0.01,18.31,120.0-130.0
120.0,1360.0,-0.08,-0.03,9.8,0.09,0.01,0.04,18.32,120.0-130.0
120.0,1582.0,-0.08,-0.03,9.8,0.12,0.01,0.01,18.3,120.0-130.0
120.0,1094.0,-0.07,-0.02,9.78,0.06,-0.09,-0.01,18.29,120.0-130.0
120.0,1225.0,-0.07,0.0,9.77,0.12,0.09,0.02,18.32,120.0-130.0
120.0,1290.0,-0.09,0.01,9.8,0.13,0.05,0.05,18.31,120.0-130.0
120.0,1716.0,-0.1,-0.0,9.82,0.07,-0.09,-0.07,18.33,120.0-130.0
120.0,1429.0,-0.06,0.01,9.82,0.13,-0.0,-0.01,18.29,120.0-130.0
120.0,1139.0,-0.08,0.01,9.81,0.07,-0.05,-0.05,18.29,120.0-130.0
120.0,1188.0,-0.08,-0.01,9.82,0.06,0.06,-0.07,18.28,120.0-130.0
120.0,1298.0,-0.09,-0.02,9.79,0.07,0.03,-0.05,18.32,120.0-130.0
120.0,1495.0,-0.09,-0.02,9.79,0.09,-0.0,-0.01,18.32,120.0-130.0
120.0,1425.0,-0.1,-0.01,9.8,0.09,-0.0,-0.01,18.32,120.0-130.0
120.0,1634.0,-0.07,-0.01,9.82,0.15,-0.03,0.04,18.31,120.0-130.0
120.0,1405.0,-0.08,-0.02,9.85,0.13,0.08,0.02,18.31,120.0-130.0
120.0,1424.0,-0.08,-0.02,9.84,0.16,0.03,-0.01,18.31,120.0-130.0
120.0,1487.0,-0.07,-0.02,9.81,0.1,0.03,0.01,18.3,120.0-130.0
120.0,1334.0,-0.08,-0.01,9.79,0.1,0.05,-0.02,18.29,120.0-130.0
120.0,1330.0,-0.1,0.0,9.81,0.07,-0.06,0.02,18.31,120.0-130.0
120.0,1297.0,-0.09,0.02,9.79,0.12,0.06,-0.02,18.29,120.0-130.0
120.0,1569.0,-0.08,0.0,9.8,0.06,0.08,-0.04,18.31,120.0-130.0
120.0,1031.0,-0.08,-0.04,9.81,0.04,-0.05,-0.05,18.3,120.0-130.0
120.0,1395.0,-0.07,-0.03,9.82,0.07,0.05,-0.08,18.3,120.0-130.0
120.0,1581.0,-0.09,-0.04,9.81,0.04,0.01,0.04,18.32,120.0-130.0
120.0,1173.0,-0.1,-0.04,9.78,0.13,-0.0,-0.01,18.3,120.0-130.0
120.0,1424.0,-0.09,-0.01,9.85,0.12,-0.0,-0.01,18.29,120.0-130.0
120.0,1197.0,-0.06,-0.01,9.81,0.19,-0.06,0.02,18.32,120.0-130.0
120.0,1688.0,-0.07,0.0,9.79,0.1,0.03,-0.05,18.29,120.0-130.0
120.0,1142.0,-0.08,-0.01,9.81,0.13,-0.03,-0.04,18.29,120.0-130.0
120.0,1571.0,-0.1,-0.03,9.83,0.12,0.01,0.01,18.27,120.0-130.0
120.0,1478.0,-0.09,0.01,9.83,0.1,-0.05,-0.01,18.3,120.0-130.0
120.0,1441.0,-0.07,-0.02,9.84,0.06,0.03,-0.08,18.28,120.0-130.0
120.0,1428.0,-0.09,0.01,9.74,0.04,0.08,-0.05,18.31,120.0-130.0
120.0,1371.0,-0.09,0.0,9.77,0.13,-0.0,-0.02,18.29,120.0-130.0
120.0,1269.0,-0.1,-0.03,9.81,0.12,-0.06,-0.04,18.32,120.0-130.0
120.0,1086.0,-0.09,-0.03,9.77,0.07,-0.05,-0.07,18.28,120.0-130.0
120.0,1565.0,-0.06,-0.05,9.78,0.06,0.06,0.02,18.3,120.0-130.0
120.0,1558.0,-0.09,-0.02,9.8,0.15,0.01,-0.04,18.29,120.0-130.0
120.0,1456.0,-0.06,-0.02,9.8,0.12,0.05,0.07,18.29,120.0-130.0
120.0,1023.0,-0.08,0.02,9.82,0.06,-0.03,-0.02,18.3,120.0-130.0
120.0,1479.0,-0.07,0.02,9.76,0.1,-0.06,-0.04,18.29,120.0-130.0
120.0,1514.0,-0.06,-0.01,9.82,0.09,-0.03,0.01,18.28,120.0-130.0
120.0,1008.0,-0.08,-0.0,9.8,0.04,-0.0,-0.04,18.3,120.0-130.0
120.0,1631.0,-0.1,-0.02,9.82,0.06,-0.0,0.02,18.31,120.0-130.0
120.0,1475.0,-0.07,-0.0,9.82,0.03,-0.02,0.01,18.31,120.0-130.0
120.0,1335.0,-0.06,0.01,9.79,0.04,-0.06,-0.08,18.3,120.0-130.0
120.0,1136.0,-0.08,-0.03,9.79,0.07,0.03,0.02,18.3,120.0-130.0
120.0,1344.0,-0.09,-0.01,9.79,0.15,0.03,0.07,18.28,120.0-130.0
120.0,1431.0,-0.06,-0.02,9.85,0.12,0.01,0.01,18.28,120.0-130.0
120.0,1063.0,-0.07,-0.02,9.83,0.12,0.03,0.05,18.29,120.0-130.0
120.0,1379.0,-0.07,-0.0,9.79,0.07,-0.03,0.01,18.29,120.0-130.0
120.0,1285.0,-0.06,0.0,9.81,0.06,0.03,-0.04,18.31,120.0-130.0
120.0,1654.0,-0.09,0.01,9.84,0.04,0.01,-0.04,18.29,120.0-130.0
120.0,1282.0,-0.1,0.0,9.83,0.12,0.09,-0.01,18.31,120.0-130.0
120.0,1323.0,-0.06,-0.03,9.82,0.03,-0.02,-0.08,18.31,120.0-130.0
120.0,1781.0,-0.06,-0.03,9.79,0.13,0.08,-0.27,18.29,120.0-130.0
120.0,1586.0,-0.07,-0.02,9.77,0.06,0.17,-0.28,18.31,120.0-130.0
120.0,2191.0,-0.07,0.0,9.75,0.15,-0.06,-0.08,18.29,120.0-130.0
120.0,1734.0,-0.07,0.0,9.79,0.06,-0.0,0.02,18.29,120.0-130.0
120.0,2273.0,-0.09,-0.05,9.81,0.06,0.01,0.13,18.31,120.0-130.0
120.0,1819.0,-0.05,-0.05,9.83,0.03,0.01,0.19,18.3,120.0-130.0
120.0,1527.0,-0.08,-0.02,9.81,0.09,-0.0,0.3,18.32,120.0-130.0
120.0,1002.0,-0.07,-0.02,9.82,0.12,-0.02,0.18,18.31,120.0-130.0
120.0,733.0,-0.04,-0.02,9.77,0.07,0.06,0.07,18.31,120.0-130.0
120.0,432.0,-0.11,0.0,9.82,0.01,0.01,0.1,18.29,120.0-130.0
120.0,543.0,-0.09,0.02,9.82,0.1,-0.14,0.18,18.29,120.0-130.0
120.0,798.0,-0.1,-0.01,9.8,0.04,0.14,0.19,18.3,120.0-130.0
120.0,944.0,-0.1,-0.01,9.82,0.09,-0.03,-0.05,18.28,120.0-130.0
120.0,1514.0,-0.07,-0.02,9.81,0.07,0.05,-0.3,18.31,120.0-130.0
120.0,1403.0,-0.08,-0.01,9.82,0.18,-0.0,-0.51,18.3,120.0-130.0
120.0,1310.0,-0.04,-0.02,9.82,0.25,-0.0,-0.65,18.3,120.0-130.0
120.0,1522.0,-0.04,0.0,9.79,0.16,0.08,-0.62,18.3,120.0-130.0
120.0,1344.0,-0.11,-0.01,9.76,0.12,0.06,-0.24,18.3,120.0-130.0
120.0,1430.0,-0.11,-0.05,9.78,0.06,-0.11,0.18,18.3,120.0-130.0
120.0,1350.0,-0.09,-0.02,9.77,-0.04,-0.05,0.68,18.29,120.0-130.0
120.0,1383.0,-0.08,-0.03,9.8,-0.13,0.01,0.94,18.32,120.0-130.0
120.0,1535.0,-0.08,-0.01,9.81,-0.05,0.05,0.76,18.29,120.0-130.0
120.0,1404.0,-0.08,-0.01,9.81,0.07,0.06,0.36,18.3,120.0-130.0
120.0,1377.0,-0.05,0.01,9.78,0.25,0.03,-0.37,18.3,120.0-130.0
120.0,1394.0,-0.08,0.05,9.8,0.39,0.03,-0.94,18.32,120.0-130.0
120.0,1361.0,-0.07,0.02,9.81,0.24,-0.02,-1.06,18.3,120.0-130.0
120.0,1318.0,-0.1,0.01,9.79,0.09,-0.02,-0.86,18.32,120.0-130.0
120.0,1325.0,-0.09,-0.03,9.77,0.01,-0.03,-0.21,18.31,120.0-130.0
120.0,1424.0,-0.07,-0.05,9.79,-0.16,-0.09,0.59,18.34,120.0-130.0
120.0,1459.0,-0.08,-0.07,9.85,-0.1,-0.06,0.95,18.32,120.0-130.0
120.0,1477.0,-0.07,-0.09,9.78,-0.14,-0.0,0.97,18.31,120.0-130.0
120.0,1351.0,-0.07,-0.06,9.79,0.09,0.08,0.4,18.3,120.0-130.0
120.0,1331.0,-0.09,-0.02,9.77,0.31,0.08,-0.21,18.32,120.0-130.0
120.0,1436.0,-0.08,0.03,9.78,0.44,0.03,-0.76,18.3,120.0-130.0
120.0,1424.0,-0.09,0.06,9.81,0.36,0.05,-0.85,18.31,120.0-130.0
120.0,1492.0,-0.08,0.06,9.83,0.12,-0.0,-0.57,18.3,120.0-130.0
120.0,1440.0,-0.08,0.03,9.81,-0.1,-0.0,-0.07,18.29,120.0-130.0
120.0,1429.0,-0.1,-0.02,9.82,-0.16,0.06,0.39,18.31,120.0-130.0
120.0,1291.0,-0.09,-0.06,9.82,-0.22,-0.06,0.56,18.29,120.0-130.0
120.0,1436.0,-0.05,-0.08,9.81,-0.08,0.01,0.5,18.31,120.0-130.0
120.0,1487.0,-0.08,-0.12,9.82,-0.02,0.03,0.13,18.3,120.0-130.0
120.0,1571.0,-0.09,-0.08,9.82,0.24,0.06,-0.33,18.3,120.0-130.0
120.0,1327.0,-0.06,-0.03,9.81,0.3,0.05,-0.42,18.29,120.0-130.0
120.0,1323.0,-0.07,0.01,9.78,0.35,0.09,-0.45,18.3,120.0-130.0
120.0,1423.0,-0.08,0.04,9.75,0.22,0.12,-0.27,18.29,120.0-130.0
120.0,1300.0,-0.11,0.06,9.79,0.01,-0.02,0.08,18.31,120.0-130.0
120.0,1437.0,-0.08,0.04,9.81,-0.07,-0.11,0.25,18.31,120.0-130.0
120.0,1366.0,-0.07,-0.0,9.77,-0.13,-0.03,0.34,18.29,120.0-130.0
120.0,1479.0,-0.08,-0.03,9.81,-0.1,-0.02,0.3,18.3,120.0-130.0
120.0,1350.0,-0.07,-0.07,9.83,-0.04,-0.09,-0.01,18.32,120.0-130.0
120.0,1397.0,-0.05,-0.07,9.8,0.09,-0.02,-0.19,18.31,120.0-130.0
120.0,1447.0,-0.05,-0.03,9.8,0.24,0.09,-0.27,18.3,120.0-130.0
120.0,1399.0,-0.09,-0.03,9.81,0.25,0.03,-0.33,18.31,120.0-130.0
120.0,1383.0,-0.08,-0.01,9.81,0.19,-0.05,-0.16,18.31,120.0-130.0
120.0,1445.0,-0.07,0.02,9.8,0.15,-0.02,-0.04,18.3,120.0-130.0
120.0,1366.0,-0.09,0.02,9.81,0.09,0.03,0.19,18.29,120.0-130.0
120.0,1367.0,-0.08,0.02,9.82,-0.04,-0.05,0.3,18.29,120.0-130.0
120.0,1413.0,-0.11,0.02,9.81,-0.13,0.01,0.36,18.3,120.0-130.0
120.0,1392.0,-0.07,-0.01,9.8,-0.04,0.08,0.25,18.31,120.0-130.0
120.0,1491.0,-0.08,-0.04,9.81,0.03,-0.02,0.1,18.3,120.0-130.0
120.0,1425.0,-0.08,-0.06,9.8,0.16,0.06,-0.28,18.31,120.0-130.0
120.0,1412.0,-0.08,-0.05,9.82,0.25,0.06,-0.5,18.28,120.0-130.0
120.0,1392.0,-0.1,-0.01,9.77,0.25,0.08,-0.45,18.3,120.0-130.0
120.0,1392.0,-0.09,0.0,9.8,0.18,-0.02,-0.19,18.28,120.0-130.0
120.0,1387.0,-0.1,0.0,9.8,0.1,-0.03,0.18,18.31,120.0-130.0
120.0,1405.0,-0.09,-0.0,9.8,-0.02,-0.08,0.42,18.32,120.0-130.0
120.0,1331.0,-0.08,-0.01,9.8,-0.04,0.05,0.5,18.29,120.0-130.0
120.0,1440.0,-0.07,0.0,9.83,-0.04,0.01,0.31,18.3,120.0-130.0
120.0,1312.0,-0.09,-0.02,9.81,0.12,0.01,-0.05,18.29,120.0-130.0
120.0,1280.0,-0.07,-0.02,9.81,0.13,-0.0,-0.27,18.29,120.0-130.0
120.0,1450.0,-0.07,-0.01,9.84,0.13,0.12,-0.42,18.27,120.0-130.0
120.0,1266.0,-0.07,-0.01,9.8,0.12,0.05,-0.37,18.28,120.0-130.0
120.0,1505.0,-0.08,0.0,9.76,0.06,0.05,-0.25,18.3,120.0-130.0
120.0,1391.0,-0.09,-0.02,9.8,0.07,-0.09,0.04,18.31,120.0-130.0
120.0,1344.0,-0.09,-0.02,9.83,-0.04,-0.03,0.21,18.32,120.0-130.0
120.0,1325.0,-0.08,-0.02,9.79,-0.05,-0.06,0.36,18.29,120.0-130.0
120.0,1253.0,-0.07,-0.03,9.81,0.07,-0.03,0.34,18.28,120.0-130.0
120.0,1425.0,-0.06,-0.02,9.79,0.07,0.06,0.19,18.29,120.0-130.0
120.0,1413.0,-0.07,-0.01,9.79,0.07,0.05,-0.07,18.29,120.0-130.0
120.0,1307.0,-0.07,0.0,9.79,0.22,0.05,-0.33,18.28,120.0-130.0
120.0,1469.0,-0.09,-0.0,9.79,0.18,0.03,-0.31,18.3,120.0-130.0
120.0,1350.0,-0.07,0.0,9.81,0.13,-0.02,-0.22,18.32,120.0-130.0
120.0,1379.0,-0.07,-0.02,9.75,0.1,-0.0,-0.07,18.32,120.0-130.0
120.0,1584.0,-0.08,-0.02,9.79,0.06,-0.06,0.21,18.29,120.0-130.0
120.0,1355.0,-0.11,-0.02,9.79,-0.05,0.09,0.22,18.29,120.0-130.0
120.0,1456.0,-0.07,-0.01,9.83,0.03,-0.05,0.19,18.29,120.0-130.0
120.0,1393.0,-0.05,-0.04,9.84,0.12,0.06,0.04,18.29,120.0-130.0
120.0,1231.0,-0.04,-0.04,9.83,0.15,0.06,-0.04,18.31,120.0-130.0
120.0,1601.0,-0.1,0.01,9.81,0.28,0.05,-0.13,18.29,120.0-130.0
120.0,1335.0,-0.08,0.01,9.82,0.18,0.05,-0.27,18.32,120.0-130.0
120.0,1533.0,-0.09,0.02,9.8,0.07,-0.03,-0.19,18.3,120.0-130.0
120.0,1426.0,-0.09,0.01,9.8,0.09,0.01,-0.08,18.3,120.0-130.0
120.0,1451.0,-0.07,0.0,9.8,0.03,0.05,0.1,18.29,120.0-130.0
120.0,1426.0,-0.07,-0.04,9.78,-0.08,-0.0,0.13,18.3,120.0-130.0
120.0,1385.0,-0.09,-0.03,9.81,0.03,0.01,0.16,18.31,120.0-130.0
120.0,1610.0,-0.08,-0.04,9.83,0.04,0.06,0.02,18.29,120.0-130.0
120.0,1441.0,-0.1,-0.04,9.83,0.1,0.01,-0.11,18.3,120.0-130.0
120.0,1344.0,-0.07,-0.03,9.79,0.19,-0.02,-0.18,18.3,120.0-130.0
120.0,1477.0,-0.1,-0.01,9.77,0.18,0.08,-0.19,18.29,120.0-130.0
120.0,1535.0,-0.07,0.02,9.79,0.13,-0.03,-0.16,18.29,120.0-130.0
120.0,1598.0,-0.09,0.02,9.81,0.06,-0.0,-0.01,18.29,120.0-130.0
120.0,1406.0,-0.1,0.02,9.81,-0.02,-0.08,0.08,18.27,120.0-130.0
120.0,1391.0,-0.1,-0.03,9.74,0.04,-0.02,0.18,18.3,120.0-130.0
120.0,1535.0,-0.07,-0.02,9.82,-0.07,0.03,0.18,18.27,120.0-130.0
120.0,1654.0,-0.09,-0.02,9.78,0.06,-0.08,0.05,18.29,120.0-130.0
120.0,1357.0,-0.08,-0.05,9.81,0.07,0.03,-0.01,18.28,120.0-130.0
120.0,1505.0,-0.07,-0.0,9.8,0.12,-0.0,-0.16,18.27,120.0-130.0
120.0,1514.0,-0.07,-0.01,9.81,0.21,0.03,-0.16,18.3,120.0-130.0
120.0,1451.0,-0.07,-0.0,9.84,0.12,0.08,-0.14,18.3,120.0-130.0
120.0,1562.0,-0.1,-0.01,9.81,0.1,0.05,-0.08,18.29,120.0-130.0
120.0,1530.0,-0.12,-0.02,9.82,0.06,0.05,0.1,18.28,120.0-130.0
120.0,1558.0,-0.1,-0.03,9.79,0.03,0.06,0.11,18.29,120.0-130.0
120.0,1441.0,-0.09,-0.02,9.81,-0.01,-0.09,0.14,18.29,120.0-130.0
120.0,1204.0,-0.08,-0.03,9.81,-0.01,-0.0,0.1,18.31,120.0-130.0
120.0,1340.0,-0.1,-0.01,9.78,0.04,0.06,0.01,18.29,120.0-130.0
120.0,1392.0,-0.09,-0.03,9.78,0.16,-0.05,-0.1,18.27,120.0-130.0
120.0,1294.0,-0.1,-0.03,9.81,0.12,0.08,-0.19,18.29,120.0-130.0
120.0,1275.0,-0.07,-0.0,9.8,0.09,0.05,-0.14,18.31,120.0-130.0
120.0,1618.0,-0.05,-0.02,9.84,0.1,0.01,-0.08,18.3,120.0-130.0
120.0,1371.0,-0.06,-0.01,9.81,0.07,0.06,-0.01,18.29,120.0-130.0
120.0,1423.0,-0.07,0.01,9.8,0.04,0.05,0.02,18.29,120.0-130.0
120.0,1299.0,-0.06,-0.04,9.78,0.01,-0.03,0.13,18.3,120.0-130.0
120.0,1482.0,-0.08,0.0,9.78,0.12,-0.02,0.04,18.31,120.0-130.0
120.0,2928.0,-0.58,-1.99,9.84,1.09,14.28,2.95,18.01,120.0-130.0
120.0,2927.0,-2.04,-8.76,11.88,-6.28,19.59,-3.17,18.02,120.0-130.0
120.0,2927.0,-3.88,-1.88,17.49,-0.59,-18.68,3.67,18.04,120.0-130.0
120.0,2835.0,1.53,8.88,6.68,13.41,-10.93,6.72,18.05,120.0-130.0
120.0,0.0,8.98,15.55,0.38,22.2,-3.75,6.23,18.03,120.0-130.0
120.0,0.0,1.68,16.53,1.7,22.71,8.83,4.83,18.04,120.0-130.0
120.0,2928.0,-3.6,-8.86,13.29,-7.41,11.75,-7.12,18.04,120.0-130.0
120.0,2928.0,0.46,-11.41,8.26,-13.71,3.74,-9.01,18.05,120.0-130.0
120.0,1271.0,3.31,-12.37,9.24,-18.91,-4.9,-9.0,18.03,120.0-130.0
120.0,961.0,1.5,-12.25,12.61,-21.09,-7.49,-7.68,18.04,120.0-130.0
120.0,2283.0,2.54,11.64,4.68,17.16,-1.01,8.6,18.03,120.0-130.0
120.0,59.0,3.25,12.51,3.44,18.2,-0.05,7.38,18.04,120.0-130.0
120.0,0.0,2.15,13.27,3.04,18.93,4.58,5.2,18.02,120.0-130.0
120.0,0.0,-1.27,13.2,4.05,17.27,9.12,2.43,18.03,120.0-130.0
120.0,2928.0,-2.05,-8.02,11.71,-7.31,9.48,-8.16,18.02,120.0-130.0
120.0,2131.0,0.18,-9.15,9.96,-9.8,5.75,-9.06,18.01,120.0-130.0
120.0,2257.0,1.04,-9.94,8.5,-12.17,1.66,-8.55,18.04,120.0-130.0
120.0,0.0,2.95,-10.08,8.73,-13.75,-2.9,-6.77,18.04,120.0-130.0
120.0,2928.0,0.08,6.67,9.31,12.69,-3.65,8.77,18.05,120.0-130.0
120.0,1927.0,1.98,8.75,6.18,16.08,1.19,8.26,18.02,120.0-130.0
120.0,579.0,3.02,10.11,4.19,16.75,1.05,6.43,18.03,120.0-130.0
120.0,0.0,2.72,11.38,2.19,18.09,3.54,4.3,18.04,120.0-130.0
120.0,0.0,-1.5,-2.09,10.79,-1.96,9.83,-3.24,18.03,120.0-130.0
120.0,2928.0,-2.36,-3.45,11.1,-3.09,12.63,-5.45,18.05,120.0-130.0
120.0,2928.0,-2.38,-5.14,12.14,-5.5,10.79,-6.03,18.05,120.0-130.0
120.0,2928.0,-3.42,-6.12,12.21,-6.81,9.37,-5.26,18.05,120.0-130.0
120.0,244.0,3.27,-5.03,12.74,-6.11,-16.05,3.11,18.05,120.0-130.0
120.0,1484.0,2.61,-3.09,11.95,-2.86,-15.7,5.9,18.04,120.0-130.0
120.0,2786.0,2.81,-1.33,11.5,0.64,-11.84,7.09,18.05,120.0-130.0
120.0,430.0,1.64,0.6,10.75,3.9,-10.39,6.45,18.05,120.0-130.0
120.0,144.0,-3.77,7.24,9.39,8.31,8.13,2.88,18.03,120.0-130.0
120.0,0.0,-3.2,6.28,8.85,7.67,8.82,0.8,18.04,120.0-130.0
120.0,1035.0,-2.68,5.56,8.19,7.01,10.39,-0.57,18.05,120.0-130.0
120.0,2931.0,-1.47,4.19,7.58,5.43,11.98,-1.23,18.04,120.0-130.0
120.0,2010.0,-0.53,-10.22,12.4,-16.26,-7.45,-7.35,18.04,120.0-130.0
120.0,2505.0,0.51,-10.38,13.09,-15.92,-7.52,-5.21,18.03,120.0-130.0
120.0,0.0,0.39,-10.23,14.48,-16.56,-11.48,-2.98,18.02,120.0-130.0
120.0,2247.0,-0.01,-9.85,13.91,-15.07,-10.21,-1.69,18.04,120.0-130.0
120.0,2927.0,2.41,9.26,5.47,14.06,-0.7,7.15,18.04,120.0-130.0
120.0,1749.0,1.51,9.68,5.24,14.84,0.61,5.7,18.04,120.0-130.0
120.0,0.0,1.73,10.17,4.96,16.09,1.98,4.11,18.04,120.0-130.0
120.0,0.0,0.96,11.14,4.47,16.92,2.98,3.06,18.06,120.0-130.0
120.0,637.0,-1.73,-4.09,11.62,-4.28,10.96,-5.5,18.04,120.0-130.0
120.0,2928.0,-2.93,-4.65,11.81,-5.74,8.73,-4.75,18.03,120.0-130.0
120.0,2928.0,-3.45,-5.21,12.27,-7.07,8.21,-3.85,18.02,120.0-130.0
120.0,2266.0,-2.53,-5.97,12.49,-8.09,7.22,-2.89,18.03,120.0-130.0
120.0,0.0,3.22,-3.64,12.21,-5.09,-15.29,4.63,18.03,120.0-130.0
120.0,1409.0,2.34,-2.78,11.46,-3.16,-12.02,4.45,18.06,120.0-130.0
120.0,2369.0,2.57,-1.74,11.54,-0.37,-13.26,4.11,18.02,120.0-130.0
120.0,247.0,2.11,-0.28,10.82,3.24,-10.73,3.58,18.04,120.0-130.0
120.0,0.0,-3.2,7.19,9.25,8.22,6.64,0.66,18.03,120.0-130.0
120.0,0.0,-2.21,6.4,9.07,8.11,9.28,0.33,18.03,120.0-130.0
120.0,272.0,-2.26,5.96,8.65,7.21,9.19,0.82,18.02,120.0-130.0
120.0,2927.0,-1.88,4.66,8.91,5.09,8.12,1.37,18.04,120.0-130.0
120.0,2720.0,0.07,-10.07,11.65,-16.23,-5.68,-6.13,18.02,120.0-130.0
120.0,2219.0,0.4,-10.6,13.22,-17.31,-8.8,-4.49,18.03,120.0-130.0
120.0,0.0,0.53,-10.71,14.7,-17.86,-10.32,-3.73,18.02,120.0-130.0
120.0,1715.0,0.13,-10.56,14.76,-16.97,-10.65,-3.75,18.04,120.0-130.0
120.0,2928.0,2.2,8.82,4.92,13.28,-1.07,4.05,18.03,120.0-130.0
120.0,416.0,2.24,9.42,4.07,14.19,-0.38,2.98,18.04,120.0-130.0
120.0,0.0,2.0,10.03,3.67,14.57,0.05,2.37,18.03,120.0-130.0
120.0,0.0,1.69,10.22,4.07,14.37,1.69,2.48,18.02,120.0-130.0
120.0,0.0,-2.27,-1.22,9.9,-0.52,13.29,-3.82,18.03,120.0-130.0
120.0,2619.0,-3.0,-1.84,10.18,-1.7,13.14,-2.94,18.05,120.0-130.0
120.0,2849.0,-2.82,-2.64,10.27,-2.9,12.44,-2.27,18.04,120.0-130.0
120.0,2431.0,-2.58,-3.36,10.48,-4.45,12.05,-2.42,18.04,120.0-130.0
120.0,1554.0,3.38,-6.62,12.59,-7.21,-13.63,3.33,18.04,120.0-130.0
120.0,0.0,3.21,-5.74,12.27,-5.83,-13.34,2.4,18.02,120.0-130.0
120.0,2146.0,2.94,-4.98,11.64,-3.9,-12.01,0.89,18.04,120.0-130.0
120.0,471.0,3.21,-3.95,11.56,-2.08,-12.57,0.13,18.02,120.0-130.0
120.0,55.0,-2.36,9.54,9.04,10.95,4.99,1.34,18.02,120.0-130.0
120.0,566.0,-2.62,9.32,8.59,11.16,6.1,1.99,18.01,120.0-130.0
120.0,0.0,-2.9,9.29,8.29,11.13,7.83,3.35,18.04,120.0-130.0
120.0,1089.0,-2.88,8.8,8.45,10.66,7.35,4.92,18.02,120.0-130.0
120.0,2928.0,-0.01,-8.19,10.74,-12.41,0.72,-3.78,18.01,120.0-130.0
120.0,2358.0,0.36,-8.72,10.95,-13.49,-0.96,-3.55,18.03,120.0-130.0
120.0,2559.0,-0.23,-8.58,11.23,-13.42,-1.48,-4.4,18.02,120.0-130.0
120.0,130.0,-1.02,-8.45,11.14,-12.81,0.49,-5.96,18.0,120.0-130.0
120.0,0.0,1.82,1.19,9.95,5.12,-7.17,2.39,18.0,120.0-130.0
120.0,1680.0,1.98,1.29,9.77,4.53,-7.78,1.3,18.02,120.0-130.0
120.0,2031.0,1.91,1.12,10.61,3.9,-10.96,1.84,17.99,120.0-130.0
120.0,942.0,-2.63,8.22,7.89,9.39,10.44,0.62,18.02,120.0-130.0
120.0,0.0,-2.27,7.64,8.86,7.27,8.8,1.63,18.0,120.0-130.0
120.0,0.0,-3.01,7.3,9.63,5.5,7.92,2.45,18.04,120.0-130.0
120.0,0.0,-3.34,6.93,10.29,4.97,6.39,2.42,18.01,120.0-130.0
120.0,2928.0,0.24,-8.3,9.63,-11.24,1.91,-5.24,18.02,120.0-130.0
120.0,2927.0,1.14,-8.78,10.0,-11.16,0.84,-6.46,18.01,120.0-130.0
120.0,1995.0,0.12,-8.62,9.51,-10.98,-0.37,-7.56,18.03,120.0-130.0
120.0,2478.0,0.37,-8.79,9.12,-10.41,1.71,-8.14,17.99,120.0-130.0
120.0,0.0,1.51,2.08,10.54,7.46,-8.07,3.67,18.01,120.0-130.0
120.0,2242.0,1.08,3.14,10.43,8.34,-6.62,4.77,18.03,120.0-130.0
120.0,2559.0,1.21,3.9,9.31,9.01,-3.27,5.65,18.02,120.0-130.0
120.0,64.0,0.79,4.72,9.7,9.36,-4.33,6.58,18.0,120.0-130.0
120.0,0.0,-1.7,4.44,8.7,3.89,8.94,2.88,18.01,120.0-130.0
120.0,0.0,-1.38,3.78,9.34,3.03,7.03,2.3,18.03,120.0-130.0
120.0,0.0,-1.79,3.37,8.13,3.38,10.04,0.94,18.01,120.0-130.0
120.0,2928.0,-1.02,2.37,8.33,2.91,9.31,-0.4,18.02,120.0-130.0
120.0,2511.0,-0.04,-10.22,13.93,-16.24,-9.32,-7.0,18.01,120.0-130.0
120.0,2387.0,-0.66,-10.49,14.71,-16.38,-11.2,-6.42,17.99,120.0-130.0
120.0,1434.0,0.26,-10.2,14.38,-15.25,-11.09,-4.71,18.02,120.0-130.0
120.0,0.0,0.99,-9.84,14.9,-15.48,-12.38,-3.15,18.01,120.0-130.0
120.0,2041.0,1.71,9.7,3.93,15.54,1.8,5.46,18.01,120.0-130.0
120.0,2199.0,2.23,10.46,3.13,15.6,2.44,5.65,18.02,120.0-130.0
120.0,542.0,1.25,10.83,3.1,15.05,2.11,5.01,17.99,120.0-130.0
120.0,46.0,1.09,10.45,3.99,14.19,3.57,4.17,17.99,120.0-130.0
120.0,0.0,-2.48,-1.97,10.74,-2.45,10.68,-2.94,18.01,120.0-130.0
120.0,1267.0,-2.82,-3.22,11.14,-3.77,11.14,-4.59,18.02,120.0-130.0
120.0,2928.0,-2.65,-4.18,11.31,-4.43,11.12,-5.44,18.0,120.0-130.0
120.0,2928.0,-2.78,-4.76,11.49,-5.62,9.64,-5.52,18.01,120.0-130.0
120.0,1187.0,3.08,-5.4,12.45,-5.48,-14.34,1.35,18.0,120.0-130.0
120.0,0.0,2.76,-4.2,12.07,-3.97,-14.11,3.04,18.0,120.0-130.0
120.0,1874.0,2.57,-3.13,11.66,-2.19,-12.89,4.13,18.01,120.0-130.0
120.0,2928.0,2.48,-1.91,11.7,-0.23,-12.92,4.78,18.02,120.0-130.0
120.0,122.0,-3.43,9.06,8.42,9.97,8.62,3.5,18.02,120.0-130.0
120.0,123.0,-3.72,8.06,9.02,8.94,8.82,2.6,18.02,120.0-130.0
120.0,0.0,-3.38,7.14,8.79,8.26,9.22,1.58,18.01,120.0-130.0
120.0,1456.0,-2.88,6.5,8.11,8.02,10.33,0.97,18.02,120.0-130.0
120.0,2926.0,0.22,-10.57,12.37,-15.17,-3.27,-7.53,18.0,120.0-130.0
120.0,2928.0,-0.09,-10.69,12.43,-15.48,-4.26,-6.69,18.0,120.0-130.0
120.0,1952.0,1.53,-10.82,12.58,-15.57,-5.89,-5.42,18.03,120.0-130.0
120.0,0.0,1.78,-10.65,13.49,-16.04,-9.38,-4.28,18.01,120.0-130.0
120.0,2927.0,1.02,8.1,6.61,13.35,-0.14,6.23,18.0,120.0-130.0
120.0,1242.0,2.15,8.7,6.61,14.17,-1.65,6.34,18.03,120.0-130.0
120.0,354.0,0.88,9.37,5.86,14.61,-0.2,5.56,18.0,120.0-130.0
120.0,0.0,1.43,9.58,5.72,15.42,1.54,4.71,18.02,120.0-130.0
120.0,0.0,-1.52,-1.89,9.77,-2.54,9.41,-3.03,18.01,120.0-130.0
120.0,1023.0,-1.54,-2.97,10.76,-3.55,9.11,-3.43,18.01,120.0-130.0
120.0,2928.0,-2.12,-3.75,11.29,-4.28,10.44,-3.41,18.03,120.0-130.0
120.0,2928.0,-2.31,-4.36,11.8,-5.12,9.72,-3.29,18.01,120.0-130.0
120.0,2928.0,1.58,-6.07,13.83,-9.8,-16.57,0.66,18.01,120.0-130.0
120.0,0.0,2.41,-5.53,13.05,-8.21,-14.18,1.53,18.03,120.0-130.0
120.0,771.0,2.76,-4.74,12.66,-6.22,-15.24,2.3,18.04,120.0-130.0
120.0,2928.0,3.19,-3.92,11.54,-3.96,-13.82,2.71,18.03,120.0-130.0
120.0,832.0,-3.08,10.05,7.4,10.95,6.39,2.33,18.05,120.0-130.0
120.0,0.0,-3.63,9.6,7.83,10.63,7.09,1.91,18.02,120.0-130.0
120.0,0.0,-3.17,8.54,8.7,9.5,8.51,1.37,17.99,120.0-130.0
120.0,144.0,-3.81,7.95,8.81,8.33,8.94,1.75,18.01,120.0-130.0
120.0,2927.0,0.5,-9.46,10.22,-12.5,1.1,-6.72,18.01,120.0-130.0
120.0,2928.0,1.04,-9.68,10.14,-13.83,-2.5,-6.23,18.01,120.0-130.0
120.0,2928.0,1.4,-9.99,10.98,-15.13,-5.51,-6.05,18.01,120.0-130.0
120.0,0.0,0.45,-10.2,11.98,-16.3,-6.47,-6.32,18.0,120.0-130.0
120.0,1322.0,1.75,7.21,7.37,12.67,-2.82,4.98,18.03,120.0-130.0
120.0,2928.0,0.31,8.51,6.14,13.97,-0.32,4.16,18.01,120.0-130.0
120.0,19.0,1.57,9.33,3.95,15.83,2.67,3.79,18.01,120.0-130.0
120.0,729.0,3.32,9.61,3.79,14.87,0.41,3.87,18.0,120.0-130.0
120.0,0.0,-1.9,0.09,8.72,1.64,13.21,-0.91,18.01,120.0-130.0
120.0,304.0,-2.07,-0.92,10.12,-0.1,12.6,-1.49,18.02,120.0-130.0
120.0,2928.0,-3.2,-2.07,10.54,-1.82,12.86,-2.28,17.97,120.0-130.0
120.0,2928.0,-2.2,-3.48,10.84,-3.16,13.21,-3.43,18.03,120.0-130.0
120.0,2929.0,1.48,-7.03,13.75,-9.45,-16.21,0.68,18.01,120.0-130.0
120.0,0.0,2.71,-6.04,12.89,-6.48,-14.34,0.94,18.01,120.0-130.0
120.0,1625.0,2.87,-4.55,12.27,-4.03,-13.0,1.4,17.99,120.0-130.0
120.0,2928.0,2.64,-3.29,11.28,-2.0,-10.76,1.38,18.01,120.0-130.0
120.0,176.0,-3.47,9.8,9.19,10.22,5.49,2.62,18.03,120.0-130.0
120.0,334.0,-3.69,9.13,9.11,9.62,7.31,2.56,18.02,120.0-130.0
120.0,0.0,-3.61,8.44,9.14,8.77,7.34,2.74,18.01,120.0-130.0
120.0,236.0,-3.16,8.05,9.13,8.17,8.44,2.68,18.01,120.0-130.0
120.0,2927.0,0.11,-9.28,9.87,-12.21,1.48,-6.29,18.04,120.0-130.0
120.0,2928.0,0.13,-9.45,9.13,-11.24,2.15,-6.23,18.01,120.0-130.0
120.0,2400.0,1.17,-9.81,9.6,-11.42,0.43,-6.31,18.01,120.0-130.0
120.0,1136.0,2.02,-9.46,9.04,-11.5,-2.11,-5.85,18.0,120.0-130.0
120.0,1252.0,0.89,5.54,9.95,11.65,-6.0,7.04,18.02,120.0-130.0
120.0,2534.0,0.48,7.67,7.89,15.16,0.79,6.57,18.0,120.0-130.0
120.0,1535.0,1.16,8.74,6.39,16.05,3.33,5.3,18.02,120.0-130.0
120.0,39.0,1.25,9.24,5.58,16.06,1.65,4.69,18.02,120.0-130.0
120.0,0.0,-0.63,-0.38,9.49,-2.22,5.69,-1.08,18.01,120.0-130.0
120.0,233.0,-0.82,-1.91,10.36,-3.41,6.39,-1.49,18.01,120.0-130.0
120.0,2928.0,-0.7,-3.28,11.04,-4.09,9.09,-1.81,18.03,120.0-130.0
120.0,2928.0,-1.67,-3.81,11.28,-4.11,10.22,-2.19,18.02,120.0-130.0
120.0,2928.0,0.41,-8.17,14.66,-11.83,-16.14,-0.42,18.02,120.0-130.0
120.0,0.0,2.95,-6.83,13.01,-7.82,-14.92,1.85,18.0,120.0-130.0
120.0,1561.0,3.69,-5.58,12.81,-5.5,-14.21,2.43,18.0,120.0-130.0
120.0,2512.0,2.34,-4.52,12.15,-3.48,-12.19,2.22,18.02,120.0-130.0
120.0,1228.0,-2.98,10.24,8.44,11.12,5.08,3.17,18.0,120.0-130.0
120.0,73.0,-3.95,9.28,9.83,9.0,5.57,3.24,18.01,120.0-130.0
120.0,0.0,-3.33,8.4,11.27,7.24,3.88,3.72,18.01,120.0-130.0
120.0,1694.0,-4.13,7.35,11.48,5.43,7.58,3.23,18.01,120.0-130.0
120.0,2927.0,-0.04,-9.05,8.87,-13.6,1.71,-7.94,17.99,120.0-130.0
120.0,2928.0,-0.14,-10.02,10.81,-15.86,-3.19,-7.74,17.99,120.0-130.0
120.0,2399.0,-0.96,-10.71,12.17,-16.81,-5.59,-6.98,18.02,120.0-130.0
120.0,0.0,0.53,-10.88,13.38,-16.73,-7.61,-6.45,18.0,120.0-130.0
120.0,2057.0,0.57,7.44,7.35,12.61,-2.87,4.02,17.99,120.0-130.0
120.0,2928.0,1.13,8.18,6.14,14.78,1.31,3.56,17.99,120.0-130.0
120.0,1151.0,1.26,9.12,5.24,15.13,0.17,4.07,18.0,120.0-130.0
120.0,0.0,1.37,9.62,3.98,15.39,1.11,4.52,18.0,120.0-130.0
120.0,0.0,-1.53,-0.03,9.41,1.25,10.56,-0.5,18.01,120.0-130.0
120.0,2449.0,-1.91,-0.61,9.28,0.18,13.43,-0.82,18.01,120.0-130.0
120.0,2928.0,-2.2,-1.38,10.35,-1.42,11.89,-1.29,18.01,120.0-130.0
120.0,2927.0,-3.43,-2.06,10.04,-2.72,14.39,-2.66,18.02,120.0-130.0
120.0,2927.0,2.3,-7.46,13.76,-9.82,-14.53,0.69,18.02,120.0-130.0
120.0,2305.0,1.98,-6.42,12.76,-8.28,-12.77,-0.01,18.02,120.0-130.0
120.0,0.0,4.29,-6.47,13.71,-8.46,-15.98,-0.36,18.02,120.0-130.0
120.0,2927.0,3.65,-6.05,12.76,-7.6,-16.1,-0.02,18.02,120.0-130.0
120.0,1669.0,-2.83,10.56,6.5,10.69,6.23,0.53,18.02,120.0-130.0
120.0,476.0,-2.87,9.97,7.49,10.54,5.51,2.04,18.02,120.0-130.0
120.0,0.0,-2.41,9.67,9.14,9.65,3.72,3.46,18.02,120.0-130.0
120.0,0.0,-4.18,9.74,9.24,8.88,5.54,4.14,18.01,120.0-130.0
120.0,2927.0,-0.0,-7.13,9.8,-8.25,7.86,-5.01,18.01,120.0-130.0
120.0,2928.0,-1.17,-7.41,8.78,-9.05,5.26,-5.87,18.01,120.0-130.0
120.0,2464.0,0.33,-8.18,9.14,-9.89,2.72,-6.92,18.02,120.0-130.0
120.0,2368.0,0.16,-8.37,9.03,-10.99,0.21,-7.51,18.0,120.0-130.0
120.0,19.0,2.38,2.19,10.59,7.79,-7.1,4.04,18.01,120.0-130.0
120.0,2923.0,1.18,3.32,9.42,8.68,-3.59,3.7,18.0,120.0-130.0
120.0,2928.0,0.97,4.17,9.43,9.33,-5.17,4.23,18.01,120.0-130.0
120.0,705.0,0.76,5.21,8.59,10.37,-4.96,5.41,17.99,120.0-130.0
120.0,192.0,-1.43,4.31,8.58,4.97,7.96,2.86,18.02,120.0-130.0
120.0,0.0,-1.01,3.72,8.14,4.42,9.96,2.63,18.02,120.0-130.0
120.0,547.0,-0.75,2.71,8.0,3.44,11.12,1.52,17.99,120.0-130.0
120.0,2928.0,-0.54,1.73,7.83,2.74,10.33,0.19,18.02,120.0-130.0
120.0,2928.0,-0.77,-10.03,14.24,-16.71,-11.48,-5.78,18.02,120.0-130.0
120.0,2928.0,-0.19,-9.87,14.63,-15.86,-12.01,-5.62,18.01,120.0-130.0
120.0,1530.0,0.44,-9.86,15.53,-16.04,-12.36,-5.04,18.04,120.0-130.0
120.0,545.0,-0.26,-9.63,15.61,-16.12,-12.94,-4.04,18.01,120.0-130.0
120.0,2458.0,1.85,10.05,3.45,15.05,2.85,3.7,18.0,120.0-130.0
120.0,1273.0,1.98,10.23,3.18,14.55,1.65,4.46,18.01,120.0-130.0
120.0,675.0,2.17,10.37,3.69,13.76,0.26,5.23,18.02,120.0-130.0
120.0,176.0,1.8,10.42,3.61,13.36,2.09,4.78,18.01,120.0-130.0
120.0,0.0,-3.29,-2.49,11.31,-2.0,13.44,-2.25,18.01,120.0-130.0
120.0,2928.0,-3.39,-3.44,11.37,-2.77,13.38,-3.91,17.99,120.0-130.0
120.0,2927.0,-2.44,-4.07,11.36,-3.5,11.34,-5.01,18.0,120.0-130.0
120.0,2925.0,-2.51,-4.28,11.36,-4.78,8.19,-5.79,17.99,120.0-130.0
120.0,2927.0,3.71,-5.25,12.36,-4.74,-13.49,1.11,17.99,120.0-130.0
120.0,878.0,3.43,-3.94,11.41,-3.59,-11.87,2.04,18.0,120.0-130.0
120.0,2928.0,4.43,-3.89,11.43,-3.19,-12.02,2.77,17.99,120.0-130.0
120.0,2928.0,3.3,-3.08,11.87,-2.1,-16.45,4.16,18.0,120.0-130.0
120.0,620.0,-3.91,8.94,9.23,8.77,6.91,2.74,17.99,120.0-130.0
120.0,13.0,-3.72,8.02,10.0,8.36,6.52,3.18,17.99,120.0-130.0
120.0,0.0,-3.13,7.65,9.36,8.86,8.71,3.14,18.01,120.0-130.0
120.0,2928.0,-3.08,6.86,9.76,7.82,7.89,2.48,18.02,120.0-130.0
120.0,2927.0,-0.37,-9.72,10.17,-13.66,0.7,-7.35,18.01,120.0-130.0
120.0,2927.0,0.63,-10.12,11.25,-14.78,-4.81,-6.83,17.99,120.0-130.0
120.0,2927.0,0.12,-10.11,12.21,-15.94,-5.71,-6.71,17.98,120.0-130.0
120.0,0.0,-0.23,-10.21,13.15,-16.79,-6.44,-6.22,18.0,120.0-130.0
120.0,1601.0,0.89,7.12,6.89,12.34,-1.92,4.39,17.99,120.0-130.0
120.0,2928.0,0.83,7.75,6.11,12.48,-0.87,4.37,17.99,120.0-130.0
120.0,447.0,1.49,7.87,5.75,12.72,-2.18,4.66,17.99,120.0-130.0
120.0,1115.0,2.36,8.46,4.95,13.28,-1.4,4.43,18.01,120.0-130.0
120.0,0.0,-1.77,1.34,8.44,2.79,12.1,-0.27,18.02,120.0-130.0
120.0,0.0,-1.99,1.03,8.43,3.06,14.48,-1.12,18.01,120.0-130.0
120.0,2928.0,-2.09,0.36,9.07,2.1,14.66,-1.79,18.01,120.0-130.0
120.0,2927.0,-2.42,-0.47,9.45,0.68,13.61,-2.34,17.99,120.0-130.0
120.0,2928.0,1.1,-9.08,14.68,-12.01,-13.4,-0.88,18.0,120.0-130.0
120.0,2928.0,1.52,-8.54,13.93,-10.5,-12.99,0.05,18.0,120.0-130.0
120.0,0.0,2.35,-8.02,13.37,-9.3,-12.41,0.5,18.02,120.0-130.0
120.0,2256.0,2.72,-7.17,12.52,-7.8,-11.38,0.56,18.02,120.0-130.0
120.0,1737.0,-0.51,10.17,6.94,12.77,2.56,4.89,18.01,120.0-130.0
120.0,1438.0,-0.37,10.28,6.87,13.61,3.78,4.65,17.99,120.0-130.0
120.0,233.0,0.37,10.45,5.88,14.12,5.63,3.87,17.98,120.0-130.0
120.0,0.0,0.98,10.52,4.94,13.42,6.32,2.82,18.01,120.0-130.0
120.0,0.0,-3.16,-4.83,11.8,-6.83,8.42,-5.33,18.01,120.0-130.0
120.0,2928.0,-3.15,-4.41,11.42,-5.62,10.06,-5.32,18.01,120.0-130.0
120.0,2928.0,-2.78,-4.71,11.16,-5.94,9.05,-5.32,18.03,120.0-130.0
120.0,2928.0,-1.73,-5.12,11.23,-6.54,6.79,-4.8,18.04,120.0-130.0
120.0,2690.0,3.25,-4.93,11.68,-4.19,-13.73,2.65,18.01,120.0-130.0
120.0,115.0,3.01,-4.64,11.84,-3.62,-12.3,2.71,18.01,120.0-130.0
120.0,2927.0,2.74,-3.91,11.68,-2.1,-10.71,2.83,18.0,120.0-130.0
120.0,2927.0,2.63,-3.29,10.84,-1.13,-10.22,2.77,17.97,120.0-130.0
120.0,1299.0,-1.92,9.71,8.06,10.87,4.67,3.5,17.99,120.0-130.0
120.0,1746.0,-2.02,9.72,7.77,10.52,6.41,2.74,18.02,120.0-130.0
120.0,0.0,-2.09,9.35,8.11,10.11,6.76,2.25,18.01,120.0-130.0
120.0,0.0,-2.23,9.12,8.92,8.98,6.99,2.05,18.02,120.0-130.0
120.0,2927.0,-1.78,-6.91,9.9,-10.75,4.65,-6.87,18.01,120.0-130.0
120.0,2926.0,-0.45,-7.28,10.24,-10.47,2.35,-6.74,17.99,120.0-130.0
120.0,2927.0,-0.32,-7.96,10.8,-11.8,2.14,-6.87,18.01,120.0-130.0
120.0,2480.0,-0.3,-8.41,10.53,-11.72,3.51,-6.61,18.0,120.0-130.0
120.0,93.0,1.06,-0.36,10.7,2.71,-8.62,3.14,17.99,120.0-130.0
120.0,2926.0,2.25,-0.1,10.45,4.01,-8.59,3.84,18.02,120.0-130.0
120.0,2928.0,1.59,0.7,10.92,4.6,-11.08,4.71,18.0,120.0-130.0
120.0,1936.0,1.6,1.53,9.3,5.78,-6.21,4.42,18.0,120.0-130.0
120.0,1850.0,-2.82,7.49,9.09,8.49,7.23,3.14,17.99,120.0-130.0
120.0,0.0,-3.09,7.75,7.78,9.47,11.02,2.6,17.99,120.0-130.0
120.0,0.0,-2.18,7.24,8.01,8.63,9.78,2.02,17.99,120.0-130.0
120.0,2926.0,-2.36,6.82,8.52,7.26,8.61,1.72,18.0,120.0-130.0
