Speed,Voice,Acceleration X,Acceleration Y,Acceleration Z,Gyro X,Gyro Y,Gyro Z,Temperature,Speed_Range
120.0,2927.0,-1.78,-5.09,12.27,-4.02,-4.48,-9.38,27.74,120.0-130.0
120.0,2928.0,-1.51,-5.22,12.28,-4.35,-3.61,-9.69,27.77,120.0-130.0
120.0,2336.0,-1.47,-5.4,12.23,-4.64,-2.75,-9.84,27.73,120.0-130.0
120.0,1177.0,-0.56,5.72,10.37,11.5,-6.42,9.6,27.75,120.0-130.0
120.0,2511.0,-0.07,5.43,10.28,10.98,-6.63,9.61,27.73,120.0-130.0
120.0,0.0,0.84,5.19,10.11,10.95,-6.54,9.29,27.76,120.0-130.0
120.0,410.0,2.18,4.66,9.25,10.75,-7.21,7.71,27.73,120.0-130.0
120.0,0.0,-0.36,3.35,8.63,-3.07,8.37,5.98,27.74,120.0-130.0
120.0,1286.0,0.16,4.39,7.71,-0.87,9.16,7.08,27.74,120.0-130.0
120.0,2765.0,0.38,5.63,6.43,1.98,9.91,8.61,27.74,120.0-130.0
120.0,2162.0,-1.4,6.91,5.47,5.32,12.58,10.01,27.73,120.0-130.0
120.0,2210.0,-0.14,-6.05,11.39,-11.31,1.3,-8.93,27.77,120.0-130.0
120.0,2928.0,-3.04,-4.24,13.49,-11.66,2.17,-5.07,27.75,120.0-130.0
120.0,1333.0,-3.21,-1.61,13.46,-10.44,2.8,-0.26,27.75,120.0-130.0
120.0,1712.0,-0.28,0.95,11.2,-8.38,3.44,4.64,27.74,120.0-130.0
120.0,1440.0,1.56,-7.58,11.89,-6.87,-12.17,-11.38,27.76,120.0-130.0
120.0,2194.0,4.19,-8.42,10.19,-9.47,-9.09,-11.58,27.76,120.0-130.0
120.0,55.0,1.98,-7.96,11.64,-11.97,-7.04,-10.31,27.74,120.0-130.0
120.0,2919.0,-2.55,-5.79,14.97,-13.28,-4.65,-6.9,27.76,120.0-130.0
120.0,1397.0,-2.4,-5.21,12.0,1.69,-14.75,-10.35,27.74,120.0-130.0
120.0,1151.0,-0.75,-7.19,13.19,-3.27,-15.77,-13.64,27.76,120.0-130.0
120.0,688.0,3.14,-8.79,12.0,-8.0,-14.64,-14.6,27.74,120.0-130.0
120.0,606.0,3.92,-9.17,11.13,-11.82,-13.02,-12.68,27.76,120.0-130.0
120.0,1793.0,-0.03,-0.57,7.75,8.98,-7.29,-2.33,27.76,120.0-130.0
120.0,2928.0,-2.85,-4.17,11.5,3.57,-14.43,-7.32,27.76,120.0-130.0
120.0,2927.0,-2.19,-6.88,13.21,-1.56,-17.31,-11.61,27.76,120.0-130.0
120.0,2928.0,3.62,-8.84,11.9,-6.81,-16.32,-14.16,27.75,120.0-130.0
120.0,2928.0,3.26,4.45,3.24,13.25,1.91,4.07,27.73,120.0-130.0
120.0,2253.0,0.59,0.07,6.95,10.2,-2.43,-2.9,27.72,120.0-130.0
120.0,2447.0,-2.65,-3.7,10.88,4.37,-14.56,-8.76,27.75,120.0-130.0
120.0,2861.0,-1.85,-6.86,13.55,-2.1,-19.25,-13.52,27.74,120.0-130.0
120.0,2927.0,0.89,8.22,4.04,14.7,11.57,9.74,27.75,120.0-130.0
120.0,721.0,3.19,4.54,2.23,13.44,6.0,4.15,27.73,120.0-130.0
120.0,1467.0,-0.32,0.09,7.01,9.38,-2.31,-2.06,27.74,120.0-130.0
120.0,1339.0,-3.55,-4.02,11.59,3.41,-13.77,-7.63,27.75,120.0-130.0
120.0,1054.0,-4.17,9.79,7.25,12.78,19.19,14.74,27.74,120.0-130.0
120.0,337.0,1.19,8.23,2.86,15.74,14.73,10.41,27.74,120.0-130.0
120.0,2290.0,5.09,4.48,2.05,14.0,5.26,3.68,27.74,120.0-130.0
120.0,2487.0,-0.66,-0.15,7.26,9.33,-5.18,-3.48,27.75,120.0-130.0
120.0,2928.0,-5.7,9.56,6.75,9.62,23.28,14.36,27.75,120.0-130.0
120.0,2928.0,-4.25,9.96,6.93,13.87,20.74,12.88,27.74,120.0-130.0
120.0,2410.0,2.69,7.78,2.52,15.24,13.37,8.88,27.73,120.0-130.0
120.0,2118.0,3.05,4.11,2.82,12.89,3.41,3.42,27.75,120.0-130.0
120.0,1712.0,-0.36,8.03,5.6,3.46,21.17,14.72,27.75,120.0-130.0
120.0,2927.0,-6.14,9.77,8.11,8.91,21.67,16.17,27.75,120.0-130.0
120.0,1999.0,-3.27,9.92,6.5,13.44,18.24,14.22,27.76,120.0-130.0
120.0,0.0,3.53,7.58,1.65,15.38,11.99,8.74,27.75,120.0-130.0
120.0,1173.0,1.7,5.22,7.05,-2.58,15.42,10.13,27.75,120.0-130.0
120.0,93.0,-1.71,8.4,6.28,4.62,20.91,13.78,27.75,120.0-130.0
120.0,0.0,-6.14,9.89,7.63,10.6,21.4,14.88,27.74,120.0-130.0
120.0,0.0,-2.62,9.82,5.74,14.54,19.17,12.45,27.74,120.0-130.0
120.0,0.0,1.42,1.72,10.88,-8.09,5.96,5.31,27.75,120.0-130.0
120.0,0.0,1.08,6.09,6.93,-1.15,16.99,11.89,27.76,120.0-130.0
120.0,0.0,-2.09,8.58,5.91,5.59,22.04,15.7,27.74,120.0-130.0
120.0,0.0,-5.51,9.91,8.09,10.83,20.38,16.25,27.73,120.0-130.0
120.0,669.0,-3.07,-1.96,16.07,-12.9,-2.94,0.26,27.75,120.0-130.0
120.0,1231.0,1.27,2.57,9.9,-7.02,8.54,6.56,27.75,120.0-130.0
120.0,0.0,1.18,6.4,6.22,0.19,18.7,11.55,27.73,120.0-130.0
120.0,1988.0,-2.8,8.79,6.18,7.23,23.25,14.62,27.73,120.0-130.0
120.0,2926.0,-5.85,-5.88,18.49,-15.28,-10.4,-6.93,27.74,120.0-130.0
120.0,2927.0,-2.4,-1.27,14.61,-11.22,0.4,0.4,27.76,120.0-130.0
120.0,2925.0,2.0,3.45,8.67,-5.12,10.76,8.06,27.74,120.0-130.0
120.0,2926.0,0.95,6.86,5.97,2.09,21.69,13.24,27.77,120.0-130.0
120.0,2928.0,-1.34,-8.82,16.2,-16.1,-19.72,-9.61,27.75,120.0-130.0
120.0,2925.0,-5.16,-4.63,17.75,-14.42,-7.41,-3.69,27.75,120.0-130.0
120.0,2925.0,-1.12,0.23,12.59,-9.45,3.91,3.34,27.72,120.0-130.0
120.0,2927.0,2.83,4.77,7.13,-2.58,15.05,9.38,27.74,120.0-130.0
120.0,2928.0,4.35,-10.19,12.77,-14.06,-22.82,-14.13,27.73,120.0-130.0
120.0,2927.0,-3.45,-7.94,17.33,-15.71,-15.68,-9.55,27.73,120.0-130.0
120.0,2927.0,-5.05,-3.29,17.4,-13.42,-5.36,-3.11,27.77,120.0-130.0
120.0,2439.0,0.29,1.56,10.68,-8.43,5.65,4.47,27.75,120.0-130.0
120.0,2175.0,5.99,-9.94,12.15,-9.91,-22.19,-14.91,27.78,120.0-130.0
120.0,1444.0,2.49,-9.93,13.6,-14.99,-21.16,-12.18,27.76,120.0-130.0
120.0,0.0,-4.88,-6.74,18.08,-15.49,-13.13,-6.26,27.75,120.0-130.0
120.0,816.0,-3.46,-2.12,15.28,-12.36,-2.56,0.35,27.73,120.0-130.0
120.0,659.0,3.28,-8.56,13.32,-5.73,-20.87,-14.31,27.74,120.0-130.0
120.0,1764.0,5.82,-10.08,12.49,-12.43,-23.87,-14.8,27.77,120.0-130.0
120.0,146.0,-0.76,-8.97,15.4,-15.34,-19.08,-11.31,27.73,120.0-130.0
120.0,1685.0,-5.16,-5.08,17.46,-14.21,-8.46,-5.65,27.74,120.0-130.0
120.0,0.0,-0.19,-6.98,13.2,-1.24,-16.72,-13.47,27.74,120.0-130.0
120.0,0.0,4.6,-9.25,13.21,-8.49,-22.24,-15.3,27.76,120.0-130.0
120.0,1298.0,4.68,-9.98,12.23,-13.27,-21.8,-13.44,27.76,120.0-130.0
120.0,659.0,-3.21,-7.99,17.35,-15.81,-16.0,-8.53,27.75,120.0-130.0
120.0,233.0,-2.64,-4.9,11.28,2.77,-11.44,-9.6,27.74,120.0-130.0
120.0,0.0,0.84,-7.77,13.63,-4.17,-19.54,-13.67,27.75,120.0-130.0
120.0,0.0,5.42,-9.52,11.59,-9.86,-21.4,-14.91,27.75,120.0-130.0
120.0,1262.0,1.69,-9.63,14.0,-14.04,-19.65,-12.5,27.76,120.0-130.0
120.0,2927.0,-2.48,-2.12,8.51,6.62,-5.59,-6.48,27.73,120.0-130.0
120.0,1067.0,-1.81,-5.93,12.97,-0.13,-16.27,-12.15,27.77,120.0-130.0
120.0,2128.0,2.72,-8.53,13.02,-6.55,-20.84,-15.05,27.74,120.0-130.0
120.0,913.0,5.32,-9.89,11.38,-11.74,-20.91,-14.56,27.74,120.0-130.0
120.0,2256.0,0.48,0.77,5.02,10.05,0.28,-1.89,27.73,120.0-130.0
120.0,1643.0,-2.74,-3.85,11.16,3.12,-12.43,-8.39,27.72,120.0-130.0
120.0,2928.0,-0.8,-7.09,13.35,-2.64,-18.56,-13.08,27.75,120.0-130.0
120.0,1886.0,4.55,-9.21,12.02,-8.7,-20.76,-14.71,27.73,120.0-130.0
120.0,2928.0,3.44,3.87,1.69,13.09,5.78,3.23,27.74,120.0-130.0
120.0,1772.0,-1.6,-1.05,7.62,8.14,-2.92,-4.61,27.75,120.0-130.0
120.0,2927.0,-2.12,-5.41,12.08,1.43,-14.46,-10.77,27.77,120.0-130.0
120.0,2928.0,1.29,-8.19,13.68,-5.51,-20.35,-15.03,27.76,120.0-130.0
120.0,2654.0,3.71,6.3,1.41,14.67,10.81,6.81,27.76,120.0-130.0
120.0,2445.0,1.86,1.92,4.13,11.24,1.96,-0.49,27.74,120.0-130.0
120.0,1931.0,-2.21,-2.81,9.8,5.63,-8.55,-7.13,27.75,120.0-130.0
120.0,1262.0,-1.32,-6.68,13.45,-1.53,-17.77,-12.31,27.72,120.0-130.0
120.0,350.0,0.3,8.37,3.69,14.8,16.7,11.2,27.74,120.0-130.0
120.0,1495.0,4.5,4.5,1.69,13.19,7.21,4.35,27.73,120.0-130.0
120.0,1154.0,0.01,0.01,6.28,9.1,-2.3,-2.85,27.75,120.0-130.0
120.0,23.0,-2.92,-4.55,11.13,2.92,-11.36,-9.57,27.75,120.0-130.0
120.0,693.0,-3.88,9.59,6.97,13.22,20.5,13.21,27.73,120.0-130.0
120.0,1973.0,2.98,7.18,2.33,14.17,11.8,8.04,27.74,120.0-130.0
120.0,2352.0,2.2,2.88,3.03,12.14,4.48,1.17,27.73,120.0-130.0
120.0,2212.0,-1.35,-1.95,7.76,6.85,-4.17,-6.01,27.75,120.0-130.0
120.0,1727.0,-5.37,9.45,8.31,10.26,19.97,15.17,27.75,120.0-130.0
120.0,899.0,-0.81,8.66,5.72,13.32,15.16,11.78,27.73,120.0-130.0
120.0,0.0,3.27,5.57,1.38,13.88,9.59,5.87,27.74,120.0-130.0
120.0,789.0,1.39,0.93,4.57,9.78,-0.05,-1.57,27.75,120.0-130.0
120.0,635.0,-3.76,9.01,6.8,7.62,22.3,15.3,27.74,120.0-130.0
120.0,2321.0,-4.9,9.6,7.6,12.48,20.29,14.14,27.74,120.0-130.0
120.0,1665.0,1.58,7.91,3.73,14.54,13.51,9.61,27.75,120.0-130.0
120.0,1211.0,3.13,4.11,1.63,13.04,6.48,2.93,27.74,120.0-130.0
120.0,1118.0,-0.34,8.14,5.84,4.1,20.15,14.05,27.73,120.0-130.0
120.0,2913.0,-5.49,9.42,7.42,9.46,22.47,15.18,27.77,120.0-130.0
120.0,538.0,-2.95,9.17,6.97,13.39,18.04,12.99,27.72,120.0-130.0
120.0,0.0,3.14,6.41,2.24,13.82,10.63,7.63,27.73,120.0-130.0
120.0,0.0,1.02,6.27,6.87,-0.77,15.56,11.6,27.74,120.0-130.0
120.0,0.0,-2.16,8.82,5.86,6.17,22.03,14.98,27.74,120.0-130.0
120.0,0.0,-4.62,9.44,7.76,10.87,20.3,14.85,27.73,120.0-130.0
120.0,0.0,0.0,8.49,4.91,13.97,14.67,11.17,27.72,120.0-130.0
120.0,0.0,0.52,3.57,9.42,-5.19,9.89,7.95,27.73,120.0-130.0
120.0,0.0,0.49,7.59,5.92,1.98,19.0,13.17,27.73,120.0-130.0
120.0,0.0,-5.08,9.38,6.95,8.37,22.82,15.32,27.71,120.0-130.0
120.0,1147.0,-4.4,9.29,7.36,12.58,20.7,13.89,27.73,120.0-130.0
120.0,597.0,-1.13,0.59,13.59,-9.5,1.98,3.77,27.73,120.0-130.0
120.0,1045.0,1.4,5.09,7.74,-2.92,13.04,10.18,27.76,120.0-130.0
120.0,361.0,-1.45,8.26,5.96,4.18,20.59,14.31,27.74,120.0-130.0
120.0,1318.0,-5.6,9.32,7.55,9.79,21.51,15.29,27.74,120.0-130.0
120.0,2928.0,-3.49,-2.89,17.27,-12.72,-6.34,-0.95,27.72,120.0-130.0
120.0,2401.0,0.42,2.18,11.2,-7.54,5.01,6.36,27.73,120.0-130.0
120.0,2559.0,1.05,6.49,6.7,-0.26,16.2,12.07,27.76,120.0-130.0
120.0,2509.0,-3.5,8.97,6.06,6.53,21.52,14.95,27.73,120.0-130.0
120.0,1966.0,-3.88,-5.68,17.81,-13.66,-9.59,-5.58,27.74,120.0-130.0
120.0,1617.0,-2.05,-0.94,15.23,-10.56,-1.02,1.85,27.74,120.0-130.0
120.0,2927.0,0.37,3.7,10.07,-4.86,9.67,8.13,27.74,120.0-130.0
120.0,2117.0,-0.46,7.82,6.11,2.21,16.73,13.57,27.74,120.0-130.0
120.0,2405.0,-0.44,-8.09,15.0,-13.92,-13.63,-9.84,27.74,120.0-130.0
120.0,2927.0,-4.65,-4.05,17.72,-12.84,-6.46,-3.04,27.72,120.0-130.0
120.0,2925.0,-0.3,0.66,13.45,-9.37,0.28,4.64,27.72,120.0-130.0
120.0,2927.0,1.3,5.39,7.62,-2.87,12.67,10.59,27.73,120.0-130.0
120.0,2924.0,3.9,-9.17,11.6,-12.67,-18.14,-12.76,27.73,120.0-130.0
120.0,2928.0,-3.23,-6.63,17.12,-13.72,-12.11,-7.31,27.73,120.0-130.0
120.0,2928.0,-3.58,-2.5,16.3,-11.6,-3.58,-0.44,27.74,120.0-130.0
120.0,1613.0,0.41,2.53,11.22,-7.02,6.2,6.39,27.75,120.0-130.0
120.0,2928.0,5.12,-9.2,10.82,-9.69,-18.91,-14.83,27.73,120.0-130.0
120.0,1983.0,2.68,-8.76,12.88,-12.9,-16.52,-11.2,27.76,120.0-130.0
120.0,1401.0,-4.68,-5.65,17.64,-13.66,-9.88,-5.4,27.74,120.0-130.0
120.0,1257.0,-1.92,-1.18,15.35,-10.99,-3.27,1.77,27.73,120.0-130.0
120.0,1799.0,2.87,-8.34,12.83,-6.57,-18.41,-15.09,27.74,120.0-130.0
120.0,2927.0,5.03,-9.36,11.45,-11.51,-21.16,-14.01,27.75,120.0-130.0
120.0,334.0,-0.79,-7.93,14.96,-13.54,-13.97,-9.98,27.75,120.0-130.0
120.0,1866.0,-2.63,-3.97,10.66,3.4,-11.21,-9.05,27.72,120.0-130.0
120.0,1593.0,-0.77,-7.28,14.08,-3.12,-19.33,-13.5,27.71,120.0-130.0
120.0,1018.0,3.38,-8.74,11.21,-7.41,-18.58,-15.23,27.72,120.0-130.0
120.0,2135.0,4.46,-9.42,10.86,-11.6,-15.63,-13.63,27.72,120.0-130.0
120.0,1606.0,-1.06,-0.98,7.8,7.27,-3.99,-4.56,27.75,120.0-130.0
120.0,1264.0,-2.66,-5.31,11.72,1.4,-13.57,-10.7,27.7,120.0-130.0
120.0,2928.0,-1.11,-7.37,13.67,-4.31,-19.16,-14.22,27.74,120.0-130.0
120.0,2499.0,5.08,-9.08,11.31,-9.11,-19.28,-15.06,27.72,120.0-130.0
120.0,2926.0,3.13,2.32,3.08,11.18,3.32,0.87,27.74,120.0-130.0
120.0,2815.0,-1.86,-2.12,8.7,5.41,-5.79,-6.06,27.73,120.0-130.0
120.0,2427.0,-3.17,-5.61,12.79,0.09,-15.54,-11.73,27.73,120.0-130.0
120.0,2931.0,1.09,-8.29,12.88,-5.13,-17.2,-15.03,27.7,120.0-130.0
120.0,1616.0,3.21,5.59,3.21,13.09,6.89,6.15,27.72,120.0-130.0
120.0,1490.0,1.01,1.36,4.9,9.41,0.56,-1.13,27.76,120.0-130.0
120.0,2928.0,-1.96,-2.94,9.42,4.95,-8.28,-7.66,27.72,120.0-130.0
120.0,2927.0,-2.09,-6.32,13.06,-1.32,-16.35,-12.5,27.74,120.0-130.0
120.0,2928.0,0.16,7.8,5.18,13.39,14.05,11.0,27.73,120.0-130.0
120.0,2926.0,4.81,4.58,2.96,12.02,4.58,4.88,27.73,120.0-130.0
120.0,2274.0,0.31,0.34,6.27,8.46,-4.13,-2.44,27.74,120.0-130.0
120.0,2345.0,-2.84,-4.0,10.54,3.05,-10.98,-9.02,27.75,120.0-130.0
120.0,650.0,-4.1,9.18,7.21,12.51,19.54,14.11,27.73,120.0-130.0
120.0,824.0,1.92,7.05,4.48,13.41,13.3,9.38,27.74,120.0-130.0
120.0,1808.0,4.52,3.7,3.3,11.62,1.04,3.16,27.73,120.0-130.0
120.0,2927.0,-0.35,-0.62,7.19,6.79,-5.84,-3.54,27.74,120.0-130.0
120.0,2927.0,-3.6,9.34,6.03,9.35,22.76,15.18,27.74,120.0-130.0
120.0,2924.0,-2.79,8.9,6.73,13.45,19.52,13.58,27.74,120.0-130.0
120.0,2928.0,2.08,6.48,3.86,13.62,11.8,8.22,27.71,120.0-130.0
120.0,2927.0,2.94,2.39,5.14,10.34,1.81,1.22,27.74,120.0-130.0
120.0,1627.0,-1.21,8.98,5.32,4.63,18.65,14.91,27.75,120.0-130.0
120.0,878.0,-3.49,9.68,5.47,10.77,22.83,15.46,27.75,120.0-130.0
120.0,1429.0,-1.3,8.67,6.08,13.42,17.51,12.53,27.73,120.0-130.0
120.0,1236.0,3.85,5.79,3.07,14.14,9.97,7.05,27.74,120.0-130.0
120.0,2857.0,-0.21,6.8,7.42,-1.45,14.23,12.16,27.75,120.0-130.0
120.0,2357.0,-2.21,9.4,4.42,6.43,22.35,15.38,27.77,120.0-130.0
120.0,794.0,-3.79,9.53,6.13,11.81,23.28,15.4,27.74,120.0-130.0
120.0,1059.0,-0.4,8.18,5.32,14.09,17.39,11.73,27.75,120.0-130.0
120.0,0.0,-0.41,3.09,11.52,-7.24,4.49,8.33,27.75,120.0-130.0
120.0,0.0,0.08,7.48,5.82,0.91,18.39,13.11,27.73,120.0-130.0
120.0,0.0,-2.7,9.41,4.98,7.91,23.28,15.3,27.71,120.0-130.0
120.0,0.0,-3.54,9.13,6.72,11.79,20.5,14.47,27.71,120.0-130.0
120.0,0.0,-2.57,-0.73,15.34,-10.84,-2.45,2.64,27.71,120.0-130.0
120.0,0.0,-0.19,3.92,10.4,-5.94,6.86,8.96,27.74,120.0-130.0
120.0,844.0,-0.65,8.17,5.85,2.3,19.58,13.67,27.73,120.0-130.0
120.0,1276.0,-3.59,9.37,5.6,8.74,21.61,15.61,27.74,120.0-130.0
120.0,1717.0,-3.91,-4.58,17.24,-12.75,-6.37,-3.4,27.74,120.0-130.0
120.0,2580.0,-2.02,0.19,14.36,-10.09,-0.57,4.39,27.74,120.0-130.0
120.0,0.0,0.14,5.02,9.03,-3.58,12.05,10.21,27.74,120.0-130.0
120.0,1142.0,-0.41,8.68,5.98,3.4,17.28,14.53,27.76,120.0-130.0
120.0,2304.0,-1.5,-7.2,15.37,-13.49,-11.06,-8.77,27.74,120.0-130.0
120.0,2928.0,-4.44,-3.54,17.5,-12.72,-6.78,-1.98,27.75,120.0-130.0
120.0,2928.0,-1.76,1.15,12.88,-8.37,4.1,5.46,27.74,120.0-130.0
120.0,2928.0,-0.57,5.89,8.88,-2.71,12.38,11.0,27.73,120.0-130.0
120.0,1774.0,4.53,-8.76,11.44,-11.49,-17.31,-12.3,27.74,120.0-130.0
120.0,2928.0,-3.23,-6.74,17.02,-13.49,-11.27,-7.42,27.73,120.0-130.0
120.0,2383.0,-4.43,-2.97,16.23,-12.46,-2.79,-0.49,27.73,120.0-130.0
120.0,2559.0,-0.68,2.49,12.69,-7.57,3.7,6.99,27.72,120.0-130.0
120.0,2926.0,6.42,-9.53,9.78,-8.76,-16.99,-15.4,27.74,120.0-130.0
120.0,2928.0,2.29,-8.29,12.68,-11.85,-16.27,-11.69,27.73,120.0-130.0
120.0,2497.0,-4.25,-5.89,16.34,-12.32,-6.65,-5.91,27.72,120.0-130.0
120.0,1467.0,-3.43,-1.8,17.13,-11.89,-3.38,0.99,27.73,120.0-130.0
120.0,51.0,3.36,-8.32,12.72,-5.71,-19.17,-15.09,27.75,120.0-130.0
120.0,644.0,4.89,-9.06,10.43,-10.53,-21.1,-14.72,27.73,120.0-130.0
120.0,677.0,0.73,-8.11,12.18,-12.32,-12.02,-10.67,27.73,120.0-130.0
120.0,0.0,-4.7,-5.3,17.71,-13.39,-6.66,-4.75,27.73,120.0-130.0
120.0,1646.0,-1.03,-6.35,13.34,-1.0,-16.53,-13.24,27.74,120.0-130.0
120.0,609.0,2.62,-8.18,12.99,-6.86,-22.64,-15.12,27.74,120.0-130.0
120.0,542.0,6.67,-9.22,10.21,-10.98,-19.84,-13.92,27.73,120.0-130.0
120.0,847.0,-2.07,-7.49,15.27,-12.91,-12.98,-9.51,27.74,120.0-130.0
120.0,91.0,-2.47,-4.23,10.82,3.96,-8.75,-10.01,27.74,120.0-130.0
120.0,310.0,1.12,-7.22,13.11,-2.89,-20.68,-13.78,27.72,120.0-130.0
120.0,1023.0,5.87,-9.02,11.24,-7.88,-18.84,-15.58,27.71,120.0-130.0
120.0,525.0,3.26,-8.74,11.88,-12.09,-18.79,-13.05,27.74,120.0-130.0
120.0,1218.0,-1.77,-1.21,7.63,7.87,-1.88,-5.68,27.73,120.0-130.0
120.0,1711.0,-1.66,-4.94,11.39,1.58,-14.52,-11.22,27.73,120.0-130.0
120.0,2928.0,0.44,-7.87,14.62,-4.12,-18.15,-14.95,27.71,120.0-130.0
120.0,1495.0,3.73,-8.54,12.1,-8.93,-21.71,-14.85,27.72,120.0-130.0
120.0,1482.0,1.76,2.26,3.84,10.4,3.47,-0.05,27.73,120.0-130.0
120.0,1722.0,-1.22,-2.39,8.71,5.63,-5.71,-6.79,27.73,120.0-130.0
120.0,1161.0,-0.79,-6.13,12.65,-0.87,-14.84,-12.47,27.73,120.0-130.0
120.0,2242.0,1.75,-7.7,12.87,-4.74,-19.91,-14.72,27.72,120.0-130.0
120.0,2059.0,2.27,5.14,3.28,13.12,9.83,4.91,27.72,120.0-130.0
120.0,2064.0,0.59,0.74,6.0,9.58,-0.45,-1.82,27.72,120.0-130.0
120.0,2928.0,-3.01,-3.66,10.01,4.74,-5.88,-9.26,27.74,120.0-130.0
120.0,2723.0,-1.0,-6.17,12.72,-1.29,-18.88,-13.24,27.72,120.0-130.0
120.0,1370.0,0.71,7.35,5.73,12.08,13.45,9.32,27.74,120.0-130.0
120.0,2927.0,1.44,3.98,3.23,11.06,4.78,3.8,27.71,120.0-130.0
120.0,1158.0,0.31,-0.41,5.63,7.4,-1.14,-4.32,27.72,120.0-130.0
120.0,0.0,-2.44,-4.24,10.24,3.96,-9.62,-10.09,27.73,120.0-130.0
120.0,425.0,-2.72,8.45,8.83,10.33,14.35,13.29,27.74,120.0-130.0
120.0,1343.0,0.79,6.22,4.21,10.54,6.83,8.91,27.72,120.0-130.0
120.0,589.0,3.02,3.14,2.9,10.92,3.56,1.1,27.71,120.0-130.0
120.0,1620.0,-0.8,-1.42,7.03,7.35,-3.7,-5.58,27.72,120.0-130.0
120.0,2642.0,-2.74,9.23,7.42,8.88,18.59,15.17,27.74,120.0-130.0
120.0,2871.0,-3.17,8.16,7.36,11.55,12.24,12.97,27.76,120.0-130.0
120.0,407.0,2.4,5.43,3.17,12.61,10.15,6.03,27.73,120.0-130.0
120.0,1802.0,1.06,1.82,4.3,10.48,3.2,-0.9,27.74,120.0-130.0
120.0,799.0,-1.51,9.27,6.49,6.04,17.72,15.79,27.72,120.0-130.0
120.0,1627.0,-3.18,8.64,7.15,9.36,14.47,15.95,27.74,120.0-130.0
120.0,373.0,-0.81,7.75,5.04,13.15,15.27,10.93,27.74,120.0-130.0
120.0,1555.0,2.5,5.18,1.63,13.33,7.91,4.93,27.73,120.0-130.0
120.0,0.0,0.1,7.34,7.4,2.02,18.26,13.38,27.74,120.0-130.0
120.0,969.0,-2.19,9.01,6.21,6.63,16.91,16.2,27.72,120.0-130.0
120.0,0.0,-2.89,8.29,8.71,9.76,14.61,14.37,27.72,120.0-130.0
120.0,0.0,0.24,7.06,4.68,11.97,8.16,9.6,27.74,120.0-130.0
120.0,0.0,0.75,4.97,8.66,-2.57,14.5,10.16,27.72,120.0-130.0
120.0,0.0,1.62,7.98,4.82,4.18,19.61,14.85,27.74,120.0-130.0
120.0,0.0,-2.1,8.46,8.45,7.69,16.9,15.78,27.72,120.0-130.0
120.0,0.0,-4.14,8.49,8.35,10.75,13.76,13.43,27.71,120.0-130.0
120.0,0.0,-1.1,2.34,12.21,-7.34,5.29,6.42,27.73,120.0-130.0
120.0,0.0,1.07,6.09,6.8,-0.08,20.48,11.38,27.71,120.0-130.0
120.0,766.0,-0.85,8.77,5.67,5.37,17.72,15.79,27.73,120.0-130.0
120.0,1710.0,-3.0,8.46,7.26,10.07,18.79,15.35,27.74,120.0-130.0
120.0,1477.0,-3.64,-0.96,15.16,-10.09,-2.19,1.01,27.73,120.0-130.0
120.0,1919.0,-0.85,3.7,9.51,-3.33,14.29,7.93,27.74,120.0-130.0
120.0,2256.0,2.15,7.01,7.24,-0.33,14.4,12.66,27.73,120.0-130.0
