Speed,Voice,Acceleration X,Acceleration Y,Acceleration Z,Gyro X,Gyro Y,Gyro Z,Temperature,Speed_Range
120.0,2928.0,0.61,-7.29,11.63,0.74,25.5,-0.8,17.65,120.0-130.0
120.0,2928.0,-0.99,-8.36,22.2,-13.02,-23.77,-2.4,17.63,120.0-130.0
120.0,2399.0,-2.46,8.19,8.63,10.8,-17.94,7.91,17.65,120.0-130.0
120.0,606.0,9.69,18.9,0.57,21.83,-8.18,9.33,17.66,120.0-130.0
120.0,1307.0,0.15,18.11,6.55,20.35,7.89,6.13,17.64,120.0-130.0
120.0,1681.0,-3.27,-13.31,8.0,-11.72,19.26,-13.4,17.67,120.0-130.0
120.0,2928.0,1.44,-16.75,10.06,-25.84,-10.77,-16.03,17.67,120.0-130.0
120.0,1922.0,4.98,-15.64,19.76,-26.74,-24.84,-9.7,17.66,120.0-130.0
120.0,2627.0,1.21,-9.1,19.16,-14.43,-23.99,0.08,17.65,120.0-130.0
120.0,0.0,-9.05,13.39,9.39,14.66,10.68,8.78,17.66,120.0-130.0
120.0,0.0,-6.3,7.6,8.57,9.93,10.12,7.94,17.66,120.0-130.0
120.0,2929.0,-0.07,3.04,6.69,7.9,13.64,4.91,17.65,120.0-130.0
120.0,2928.0,-0.62,-0.29,8.1,4.92,18.8,-0.02,17.65,120.0-130.0
120.0,2895.0,1.21,-11.08,17.36,-17.13,-17.41,-4.17,17.66,120.0-130.0
120.0,511.0,1.29,-6.77,15.07,-8.73,-16.6,-0.76,17.66,120.0-130.0
120.0,2928.0,1.39,-1.6,13.09,-1.12,-15.67,2.14,17.66,120.0-130.0
120.0,0.0,1.43,3.23,10.53,5.08,-12.39,4.48,17.65,120.0-130.0
120.0,0.0,-2.72,6.77,6.93,9.88,12.25,5.01,17.64,120.0-130.0
120.0,0.0,-0.98,3.03,6.42,6.2,14.75,3.21,17.64,120.0-130.0
120.0,2928.0,-0.87,-0.24,7.62,2.71,16.02,0.56,17.65,120.0-130.0
120.0,2934.0,-1.7,-2.97,9.25,-0.97,15.43,-2.86,17.65,120.0-130.0
120.0,2417.0,2.4,-8.12,14.59,-10.92,-16.25,-1.27,17.65,120.0-130.0
120.0,727.0,1.78,-4.38,13.32,-5.3,-14.74,-0.04,17.64,120.0-130.0
120.0,2928.0,1.24,-0.86,12.26,-0.55,-14.05,1.2,17.66,120.0-130.0
120.0,0.0,1.59,2.46,10.58,4.27,-11.98,2.83,17.65,120.0-130.0
120.0,711.0,-3.0,7.57,7.21,10.23,12.28,2.74,17.66,120.0-130.0
120.0,0.0,-1.98,5.19,6.69,7.96,13.2,2.22,17.64,120.0-130.0
120.0,2928.0,-1.22,2.64,6.79,5.35,14.6,1.69,17.63,120.0-130.0
120.0,2927.0,-1.43,0.64,7.66,2.82,14.4,0.79,17.67,120.0-130.0
120.0,2927.0,1.98,-10.99,14.96,-16.74,-14.48,-2.31,17.64,120.0-130.0
120.0,2432.0,2.47,-9.32,14.48,-13.81,-16.19,-1.52,17.64,120.0-130.0
120.0,2170.0,2.62,-7.57,14.1,-10.67,-16.21,-1.4,17.65,120.0-130.0
120.0,2925.0,2.45,-5.53,13.55,-7.31,-17.12,-0.85,17.65,120.0-130.0
120.0,778.0,-1.61,11.74,6.46,15.02,7.05,3.06,17.65,120.0-130.0
120.0,832.0,-3.15,10.92,7.24,12.8,8.13,2.53,17.65,120.0-130.0
120.0,0.0,-4.17,9.75,8.02,10.42,8.93,2.48,17.64,120.0-130.0
120.0,2929.0,-4.21,7.78,8.91,7.73,9.52,2.45,17.63,120.0-130.0
120.0,2928.0,0.65,-10.49,10.6,-15.08,-1.1,-7.87,17.64,120.0-130.0
120.0,2927.0,1.5,-11.33,11.44,-16.64,-4.15,-6.98,17.64,120.0-130.0
120.0,2395.0,0.48,-11.34,12.42,-17.19,-7.97,-5.84,17.65,120.0-130.0
120.0,1840.0,0.84,-11.24,14.13,-17.13,-10.59,-5.24,17.65,120.0-130.0
120.0,2926.0,2.18,10.2,4.65,16.37,0.09,6.49,17.62,120.0-130.0
120.0,1290.0,2.25,11.48,3.53,17.83,3.4,5.15,17.64,120.0-130.0
120.0,288.0,1.93,12.27,2.28,18.26,5.63,4.34,17.64,120.0-130.0
120.0,0.0,1.62,12.69,2.46,17.5,6.15,4.31,17.64,120.0-130.0
120.0,1307.0,-2.99,-4.49,11.96,-3.41,12.13,-4.11,17.64,120.0-130.0
120.0,2928.0,-2.59,-5.75,11.7,-5.39,13.26,-4.86,17.66,120.0-130.0
120.0,2928.0,-1.55,-6.99,11.48,-7.65,8.99,-5.45,17.66,120.0-130.0
120.0,2928.0,-1.46,-7.81,10.47,-8.92,8.19,-6.81,17.66,120.0-130.0
120.0,462.0,3.5,-1.9,11.82,-1.78,-15.76,4.48,17.66,120.0-130.0
120.0,2705.0,2.51,0.55,11.39,2.59,-14.37,4.6,17.66,120.0-130.0
120.0,2382.0,1.87,2.89,9.67,6.95,-8.33,3.96,17.66,120.0-130.0
120.0,1705.0,2.34,4.92,9.23,10.1,-6.68,4.25,17.66,120.0-130.0
120.0,0.0,-2.53,3.52,8.17,6.01,11.89,0.19,17.66,120.0-130.0
120.0,0.0,-1.75,2.04,8.14,4.88,11.87,1.29,17.64,120.0-130.0
120.0,2928.0,-1.85,1.29,7.88,4.04,12.54,2.54,17.66,120.0-130.0
120.0,2928.0,-0.55,-0.12,8.43,2.3,13.24,2.04,17.64,120.0-130.0
120.0,2928.0,0.04,-9.53,15.48,-16.65,-15.49,-0.79,17.64,120.0-130.0
120.0,1983.0,1.0,-8.95,15.15,-14.93,-16.02,-1.27,17.65,120.0-130.0
120.0,1421.0,1.86,-7.92,14.78,-13.2,-16.46,-1.98,17.66,120.0-130.0
120.0,2928.0,2.0,-6.93,14.37,-11.57,-16.8,-2.56,17.66,120.0-130.0
120.0,1894.0,0.48,12.34,3.32,15.15,6.06,1.03,17.66,120.0-130.0
120.0,763.0,-0.88,11.63,4.63,12.86,6.68,0.24,17.67,120.0-130.0
120.0,0.0,-2.54,10.64,6.2,10.43,4.93,1.18,17.64,120.0-130.0
120.0,0.0,-4.01,9.82,8.17,8.83,6.24,2.94,17.66,120.0-130.0
120.0,2928.0,-0.9,-7.43,9.21,-7.7,7.67,-5.9,17.64,120.0-130.0
120.0,2410.0,0.27,-8.19,8.92,-9.27,4.96,-5.5,17.67,120.0-130.0
120.0,2928.0,0.76,-9.01,8.52,-10.99,2.75,-6.42,17.67,120.0-130.0
120.0,1067.0,1.11,-9.38,8.42,-12.15,0.5,-7.77,17.62,120.0-130.0
120.0,847.0,0.9,4.58,9.52,11.64,-3.48,6.07,17.65,120.0-130.0
120.0,2928.0,0.78,7.07,8.09,14.15,-1.19,4.77,17.65,120.0-130.0
120.0,459.0,1.01,8.5,6.22,14.98,0.64,3.79,17.65,120.0-130.0
120.0,1583.0,0.82,9.38,6.3,14.25,-0.06,3.69,17.67,120.0-130.0
120.0,0.0,-0.16,1.56,7.42,4.01,14.24,-0.42,17.66,120.0-130.0
120.0,994.0,-0.93,0.16,8.84,1.55,10.68,-0.01,17.64,120.0-130.0
120.0,2928.0,-1.42,-1.22,8.92,0.86,13.93,-0.13,17.63,120.0-130.0
120.0,2928.0,-1.18,-1.93,10.05,0.28,13.27,-0.92,17.64,120.0-130.0
120.0,2928.0,0.59,-9.62,16.25,-16.15,-17.69,-1.2,17.65,120.0-130.0
120.0,1431.0,1.82,-8.69,15.15,-13.25,-17.33,-0.42,17.66,120.0-130.0
120.0,1927.0,2.98,-8.08,14.38,-10.79,-16.83,-0.1,17.64,120.0-130.0
120.0,2929.0,2.93,-7.14,14.11,-9.39,-18.23,0.8,17.66,120.0-130.0
120.0,1637.0,-0.48,11.1,5.03,13.41,5.1,2.92,17.65,120.0-130.0
120.0,980.0,-1.87,11.0,6.78,11.97,4.56,3.9,17.63,120.0-130.0
120.0,0.0,-2.99,10.78,7.59,11.1,5.37,4.83,17.62,120.0-130.0
120.0,0.0,-2.88,10.17,8.35,9.84,7.4,4.83,17.63,120.0-130.0
120.0,2928.0,-2.32,-7.05,10.02,-9.08,7.98,-6.26,17.64,120.0-130.0
120.0,2921.0,-0.58,-8.05,9.88,-10.17,6.24,-7.41,17.68,120.0-130.0
120.0,2928.0,-0.41,-8.71,9.6,-11.89,3.04,-8.78,17.65,120.0-130.0
120.0,2249.0,0.63,-9.56,9.94,-13.22,-0.26,-9.47,17.64,120.0-130.0
120.0,138.0,1.38,3.09,10.09,7.4,-6.38,3.55,17.65,120.0-130.0
120.0,2847.0,1.0,4.42,9.23,9.52,-4.39,4.23,17.65,120.0-130.0
120.0,2165.0,1.16,5.66,8.45,11.39,-2.75,5.53,17.65,120.0-130.0
120.0,907.0,1.94,7.26,7.26,13.27,-2.24,7.09,17.64,120.0-130.0
120.0,0.0,-1.88,2.1,8.31,3.9,9.63,2.24,17.64,120.0-130.0
120.0,0.0,-1.35,1.69,7.89,4.08,11.44,1.5,17.64,120.0-130.0
120.0,2928.0,-0.92,0.87,7.97,3.28,14.85,-0.66,17.65,120.0-130.0
120.0,2927.0,-1.58,-0.62,8.98,1.31,14.3,-3.01,17.65,120.0-130.0
120.0,2928.0,1.61,-9.31,14.71,-14.81,-15.12,-3.64,17.66,120.0-130.0
120.0,1707.0,2.57,-8.81,14.92,-13.46,-17.5,-2.8,17.64,120.0-130.0
120.0,1253.0,2.31,-7.49,13.82,-11.71,-17.41,-1.47,17.64,120.0-130.0
120.0,2927.0,3.66,-7.22,13.59,-10.61,-15.35,-0.45,17.63,120.0-130.0
120.0,730.0,-1.59,11.31,4.4,13.07,5.74,3.53,17.62,120.0-130.0
120.0,1616.0,-1.54,10.21,6.69,11.96,5.32,3.91,17.65,120.0-130.0
120.0,0.0,-2.77,9.41,8.3,11.06,4.39,5.26,17.64,120.0-130.0
120.0,0.0,-2.28,9.41,8.21,12.43,6.19,6.51,17.61,120.0-130.0
120.0,2927.0,-1.55,-7.86,10.83,-10.55,3.42,-5.79,17.62,120.0-130.0
120.0,2929.0,-0.52,-8.4,10.58,-10.6,4.96,-6.19,17.65,120.0-130.0
120.0,2927.0,0.38,-8.71,10.63,-11.89,0.93,-7.01,17.64,120.0-130.0
120.0,1525.0,-0.28,-8.58,10.29,-12.67,0.38,-8.19,17.63,120.0-130.0
120.0,2207.0,1.75,1.94,10.07,5.32,-7.94,3.38,17.63,120.0-130.0
120.0,2928.0,1.33,2.52,10.16,5.09,-7.05,3.07,17.63,120.0-130.0
120.0,2481.0,1.01,2.84,9.8,5.38,-6.7,3.12,17.64,120.0-130.0
120.0,2094.0,1.22,3.38,9.95,6.11,-8.01,4.19,17.66,120.0-130.0
120.0,1089.0,-2.77,5.76,8.32,6.92,10.77,1.73,17.64,120.0-130.0
120.0,0.0,-3.07,5.18,8.88,6.34,9.09,1.99,17.63,120.0-130.0
120.0,2929.0,-3.21,4.4,8.01,6.24,11.6,1.63,17.64,120.0-130.0
120.0,2928.0,-2.12,3.59,7.95,6.33,11.21,1.81,17.63,120.0-130.0
120.0,2928.0,0.67,-10.66,13.37,-15.25,-8.58,-4.75,17.65,120.0-130.0
120.0,2928.0,0.33,-10.2,13.26,-15.13,-8.36,-4.86,17.64,120.0-130.0
120.0,1264.0,0.46,-9.81,13.2,-15.33,-8.94,-4.97,17.64,120.0-130.0
120.0,1591.0,-0.13,-9.71,13.94,-16.39,-10.22,-5.39,17.62,120.0-130.0
120.0,2927.0,1.05,10.59,4.33,15.96,1.62,5.1,17.65,120.0-130.0
120.0,2323.0,2.73,10.56,3.84,14.78,1.4,4.1,17.67,120.0-130.0
120.0,689.0,2.43,10.47,4.32,13.38,-1.4,4.17,17.64,120.0-130.0
120.0,305.0,1.61,10.61,3.96,13.9,2.61,4.26,17.62,120.0-130.0
120.0,0.0,-2.11,-2.61,9.89,-1.56,15.09,-3.65,17.63,120.0-130.0
120.0,2928.0,-2.24,-3.38,10.29,-1.74,11.96,-3.72,17.63,120.0-130.0
120.0,2928.0,-1.92,-3.89,9.88,-2.4,12.86,-4.62,17.65,120.0-130.0
120.0,2928.0,-1.33,-4.9,10.94,-4.42,10.28,-5.35,17.64,120.0-130.0
120.0,2141.0,2.78,-5.59,12.31,-5.8,-12.8,1.9,17.66,120.0-130.0
120.0,1664.0,2.99,-4.24,12.12,-4.43,-14.25,2.75,17.64,120.0-130.0
120.0,2928.0,3.01,-3.0,11.92,-3.03,-14.65,3.62,17.63,120.0-130.0
120.0,2185.0,-3.42,10.68,7.32,12.66,8.01,4.63,17.65,120.0-130.0
120.0,1724.0,-3.16,10.08,7.79,11.36,9.78,3.85,17.64,120.0-130.0
120.0,0.0,-3.47,9.23,8.05,9.78,11.15,2.75,17.64,120.0-130.0
120.0,125.0,-3.71,8.38,8.19,8.52,10.35,1.9,17.64,120.0-130.0
120.0,2928.0,-0.07,-9.69,10.0,-12.55,1.11,-8.16,17.67,120.0-130.0
120.0,2927.0,1.15,-9.77,9.33,-12.21,-0.14,-8.34,17.66,120.0-130.0
120.0,2928.0,1.58,-9.94,9.86,-12.96,-3.19,-7.88,17.63,120.0-130.0
120.0,1778.0,1.67,-10.43,10.69,-13.97,-4.46,-7.24,17.62,120.0-130.0
120.0,1535.0,0.72,7.12,8.16,12.96,-2.88,6.65,17.63,120.0-130.0
120.0,2928.0,1.24,9.04,6.81,15.42,0.01,6.95,17.66,120.0-130.0
120.0,1694.0,2.08,10.68,4.97,17.44,1.57,6.92,17.64,120.0-130.0
120.0,695.0,2.42,11.81,4.43,17.69,3.1,6.08,17.62,120.0-130.0
120.0,0.0,-2.14,-3.25,9.92,-2.51,12.33,-2.88,17.64,120.0-130.0
120.0,2927.0,-2.14,-4.52,11.39,-4.13,9.93,-3.82,17.64,120.0-130.0
120.0,2928.0,-2.99,-5.63,11.48,-5.86,10.47,-5.18,17.64,120.0-130.0
120.0,2928.0,-1.94,-7.14,11.81,-7.76,9.26,-6.32,17.64,120.0-130.0
120.0,2928.0,2.48,-3.09,12.51,-4.74,-16.08,2.34,17.63,120.0-130.0
120.0,869.0,2.46,-1.22,12.17,-1.09,-14.77,3.44,17.64,120.0-130.0
120.0,2928.0,1.39,1.28,11.07,2.97,-13.2,4.95,17.63,120.0-130.0
120.0,2547.0,2.03,3.74,10.21,7.3,-10.32,6.03,17.63,120.0-130.0
120.0,1494.0,-3.67,4.95,8.45,6.05,10.57,1.5,17.64,120.0-130.0
120.0,0.0,-2.57,2.72,8.23,4.4,11.72,1.03,17.62,120.0-130.0
120.0,1927.0,-1.18,1.0,7.94,3.02,12.37,0.31,17.62,120.0-130.0
120.0,2927.0,-0.7,-1.11,8.75,0.82,13.23,-1.06,17.62,120.0-130.0
120.0,2926.0,0.23,-9.18,15.39,-15.75,-15.44,-3.67,17.66,120.0-130.0
120.0,2928.0,1.36,-8.5,15.6,-14.39,-16.45,-2.65,17.67,120.0-130.0
120.0,1628.0,1.7,-6.93,14.82,-11.53,-19.87,-0.47,17.64,120.0-130.0
120.0,2928.0,3.11,-4.99,12.79,-7.27,-15.75,1.14,17.64,120.0-130.0
120.0,2631.0,-3.53,11.78,6.74,12.54,6.26,3.32,17.63,120.0-130.0
120.0,971.0,-5.25,10.33,7.92,10.49,10.68,2.49,17.66,120.0-130.0
120.0,0.0,-5.45,7.88,9.06,8.07,8.59,2.25,17.64,120.0-130.0
120.0,1509.0,-3.33,5.97,9.2,7.2,9.22,3.06,17.64,120.0-130.0
120.0,2927.0,0.73,-10.72,10.58,-15.4,-4.94,-7.99,17.63,120.0-130.0
120.0,2928.0,0.9,-10.93,11.11,-15.62,-4.46,-7.38,17.63,120.0-130.0
120.0,2927.0,1.09,-10.66,12.38,-16.45,-7.17,-6.72,17.64,120.0-130.0
120.0,0.0,-0.15,-10.51,14.1,-17.86,-10.96,-6.02,17.64,120.0-130.0
120.0,2928.0,2.45,11.1,3.41,17.31,2.2,6.0,17.64,120.0-130.0
120.0,2928.0,2.53,11.85,2.71,16.82,2.29,5.04,17.65,120.0-130.0
120.0,2064.0,2.41,11.78,2.61,16.54,5.42,4.08,17.64,120.0-130.0
120.0,0.0,1.75,12.03,2.74,16.21,5.02,3.97,17.64,120.0-130.0
120.0,0.0,-3.12,-4.56,11.8,-3.45,12.77,-4.14,17.62,120.0-130.0
120.0,2928.0,-3.99,-5.38,12.15,-3.99,12.51,-4.25,17.63,120.0-130.0
120.0,2928.0,-2.93,-5.98,11.58,-4.25,12.95,-4.97,17.62,120.0-130.0
120.0,2928.0,-1.28,-6.69,10.28,-5.36,11.81,-6.43,17.65,120.0-130.0
120.0,2919.0,2.74,-3.14,12.37,-1.62,-15.78,4.81,17.62,120.0-130.0
120.0,1418.0,2.38,-0.81,11.39,2.54,-12.18,5.12,17.65,120.0-130.0
120.0,2927.0,2.49,1.25,10.77,6.42,-8.76,5.36,17.64,120.0-130.0
120.0,1314.0,1.33,4.11,10.18,9.3,-8.36,6.08,17.64,120.0-130.0
120.0,1511.0,-2.52,4.3,9.39,5.23,7.64,2.92,17.66,120.0-130.0
120.0,0.0,-0.91,2.54,8.73,4.11,9.06,2.54,17.66,120.0-130.0
120.0,2450.0,-1.23,1.49,7.78,3.89,11.79,1.88,17.64,120.0-130.0
120.0,2928.0,-0.51,-0.05,7.86,2.82,13.82,-0.16,17.64,120.0-130.0
120.0,2928.0,0.46,-10.39,16.21,-16.65,-17.36,-2.98,17.65,120.0-130.0
120.0,2896.0,2.44,-9.02,14.77,-13.51,-16.56,-1.69,17.63,120.0-130.0
120.0,1913.0,3.33,-7.61,14.91,-11.3,-19.1,-0.28,17.64,120.0-130.0
120.0,2928.0,2.36,-5.33,13.15,-7.02,-17.38,1.17,17.65,120.0-130.0
120.0,1247.0,-3.95,11.04,7.99,12.77,6.12,4.11,17.64,120.0-130.0
120.0,1990.0,-4.86,9.87,8.71,11.19,9.08,4.25,17.65,120.0-130.0
120.0,0.0,-4.04,8.06,9.35,8.62,8.56,3.87,17.62,120.0-130.0
120.0,2801.0,-3.33,5.26,9.42,5.34,9.11,2.77,17.62,120.0-130.0
120.0,2928.0,-0.17,-11.11,11.53,-17.6,-4.39,-8.96,17.64,120.0-130.0
120.0,2928.0,-0.53,-12.28,15.08,-19.99,-10.56,-7.61,17.65,120.0-130.0
120.0,2928.0,-0.02,-12.02,16.34,-19.16,-14.24,-5.15,17.64,120.0-130.0
120.0,2257.0,1.51,-10.54,16.51,-16.52,-17.23,-2.94,17.65,120.0-130.0
120.0,2928.0,1.12,12.6,4.18,16.05,3.86,5.17,17.64,120.0-130.0
120.0,1527.0,-1.79,12.5,6.14,15.25,4.27,4.94,17.62,120.0-130.0
120.0,0.0,-3.12,11.79,7.75,13.97,6.01,4.97,17.64,120.0-130.0
120.0,0.0,-4.35,10.79,8.58,12.16,6.32,4.98,17.64,120.0-130.0
120.0,2928.0,-0.46,-9.45,10.07,-11.8,4.26,-8.57,17.65,120.0-130.0
120.0,2928.0,-0.01,-10.6,10.42,-15.29,-0.02,-8.92,17.66,120.0-130.0
120.0,2928.0,-0.04,-11.5,11.54,-17.49,-4.03,-8.69,17.64,120.0-130.0
120.0,1520.0,-0.24,-11.88,13.5,-18.73,-7.87,-7.53,17.64,120.0-130.0
120.0,2928.0,2.67,9.42,4.93,14.26,-2.9,6.07,17.64,120.0-130.0
120.0,2929.0,3.2,10.95,3.54,15.6,-0.44,5.7,17.66,120.0-130.0
120.0,1680.0,2.62,12.0,2.52,16.28,2.11,5.0,17.63,120.0-130.0
120.0,0.0,1.55,12.5,2.7,16.4,4.82,4.31,17.65,120.0-130.0
120.0,0.0,-3.38,-4.22,11.1,-1.87,15.21,-4.68,17.65,120.0-130.0
120.0,2928.0,-3.15,-5.62,10.86,-4.19,12.73,-5.96,17.64,120.0-130.0
120.0,2928.0,-1.72,-7.18,10.82,-7.44,9.23,-7.09,17.65,120.0-130.0
120.0,2935.0,-0.78,-8.72,10.44,-10.64,5.8,-8.02,17.64,120.0-130.0
120.0,0.0,2.11,0.54,11.59,1.76,-12.02,4.37,17.66,120.0-130.0
120.0,2928.0,1.31,2.98,10.39,5.44,-10.3,5.23,17.65,120.0-130.0
120.0,2928.0,1.18,5.61,9.19,9.47,-8.12,6.1,17.65,120.0-130.0
120.0,1647.0,1.32,8.1,7.67,13.09,-4.17,6.36,17.66,120.0-130.0
120.0,0.0,-0.77,1.38,8.13,3.24,11.7,0.48,17.65,120.0-130.0
120.0,0.0,-0.43,-0.82,8.99,0.65,11.76,-0.98,17.66,120.0-130.0
120.0,2928.0,-1.75,-2.58,9.73,-1.03,11.96,-1.82,17.65,120.0-130.0
120.0,2928.0,-3.06,-3.63,11.13,-2.19,11.11,-2.4,17.65,120.0-130.0
120.0,2928.0,2.03,-7.84,14.85,-12.11,-17.76,-0.16,17.64,120.0-130.0
120.0,320.0,2.79,-5.97,14.35,-9.11,-18.63,2.08,17.64,120.0-130.0
120.0,2928.0,2.76,-3.95,13.03,-5.62,-15.37,3.04,17.62,120.0-130.0
120.0,2928.0,2.04,-2.0,12.11,-2.29,-14.98,3.59,17.65,120.0-130.0
120.0,1644.0,-4.87,9.87,8.07,10.75,8.67,2.89,17.63,120.0-130.0
120.0,863.0,-4.81,7.93,9.0,8.49,9.03,1.78,17.64,120.0-130.0
120.0,0.0,-3.88,5.99,8.84,7.11,10.38,1.44,17.66,120.0-130.0
120.0,2931.0,-2.66,4.13,8.23,5.91,11.93,1.21,17.64,120.0-130.0
120.0,2928.0,0.21,-11.48,13.08,-17.29,-7.14,-7.5,17.64,120.0-130.0
120.0,2928.0,-0.14,-11.24,14.54,-17.42,-11.32,-5.61,17.65,120.0-130.0
120.0,1803.0,0.33,-10.91,15.31,-17.08,-12.99,-3.82,17.65,120.0-130.0
120.0,2589.0,1.38,-10.14,15.43,-15.55,-14.76,-2.33,17.64,120.0-130.0
120.0,2928.0,1.64,11.62,4.18,15.62,2.47,6.05,17.65,120.0-130.0
120.0,2117.0,-0.01,11.96,4.34,15.73,3.88,5.82,17.64,120.0-130.0
120.0,1461.0,-0.71,12.08,5.56,15.59,5.16,5.33,17.64,120.0-130.0
120.0,0.0,-1.76,11.65,6.78,14.12,4.84,4.62,17.65,120.0-130.0
120.0,1632.0,-1.9,-6.92,11.12,-8.35,9.41,-7.42,17.66,120.0-130.0
120.0,2927.0,-1.82,-7.95,10.94,-10.09,5.98,-8.0,17.64,120.0-130.0
120.0,2928.0,-1.0,-8.76,10.28,-11.3,4.41,-8.52,17.63,120.0-130.0
120.0,2928.0,-0.16,-9.68,10.05,-12.93,2.29,-8.8,17.63,120.0-130.0
120.0,1136.0,1.76,2.37,10.15,5.2,-9.32,4.84,17.64,120.0-130.0
120.0,2930.0,1.12,3.92,10.17,7.43,-8.32,5.78,17.64,120.0-130.0
120.0,2928.0,0.42,5.57,9.14,10.16,-4.21,6.22,17.65,120.0-130.0
120.0,1232.0,1.24,6.94,7.97,13.06,-1.8,6.57,17.65,120.0-130.0
120.0,1124.0,-1.72,1.99,8.63,3.21,9.6,1.32,17.64,120.0-130.0
120.0,0.0,-0.58,0.17,8.33,2.37,11.55,0.57,17.64,120.0-130.0
120.0,2928.0,-0.23,-0.95,9.38,1.15,9.06,-0.1,17.63,120.0-130.0
120.0,2928.0,-1.29,-1.63,9.53,0.67,12.8,-1.46,17.64,120.0-130.0
120.0,2928.0,0.48,-9.67,16.34,-16.62,-18.1,-3.33,17.64,120.0-130.0
120.0,2559.0,1.81,-8.49,15.14,-13.86,-17.18,-1.32,17.64,120.0-130.0
120.0,2382.0,2.79,-7.25,14.6,-11.16,-18.72,0.79,17.64,120.0-130.0
120.0,2928.0,2.87,-5.33,13.83,-7.53,-19.53,2.78,17.65,120.0-130.0
120.0,687.0,-3.37,11.09,7.51,11.71,7.6,4.26,17.67,120.0-130.0
120.0,1415.0,-4.94,9.58,8.66,9.87,7.48,3.88,17.66,120.0-130.0
120.0,0.0,-4.59,7.35,9.29,8.04,8.76,3.35,17.64,120.0-130.0
120.0,2927.0,-2.92,5.11,8.91,6.46,8.47,3.14,17.64,120.0-130.0
120.0,2928.0,1.24,-11.48,11.82,-17.57,-7.2,-9.04,17.64,120.0-130.0
120.0,2927.0,0.06,-11.29,14.05,-19.11,-11.44,-8.28,17.64,120.0-130.0
120.0,1328.0,0.08,-11.02,15.79,-19.2,-13.96,-6.49,17.65,120.0-130.0
120.0,2926.0,0.33,-10.29,16.78,-18.29,-18.59,-3.75,17.63,120.0-130.0
120.0,2928.0,1.99,13.37,2.06,17.1,5.05,5.41,17.62,120.0-130.0
120.0,832.0,-0.77,12.98,4.89,14.41,3.81,5.38,17.63,120.0-130.0
120.0,239.0,-4.26,11.66,7.79,11.71,6.9,4.62,17.64,120.0-130.0
120.0,963.0,-5.2,9.74,9.19,10.46,8.38,3.87,17.62,120.0-130.0
120.0,2928.0,0.8,-10.52,9.22,-13.74,1.68,-10.63,17.62,120.0-130.0
120.0,2927.0,0.06,-11.51,10.41,-16.77,-3.14,-10.84,17.63,120.0-130.0
120.0,2928.0,0.11,-12.52,14.15,-19.45,-9.52,-9.51,17.63,120.0-130.0
120.0,1263.0,-0.28,-12.7,16.75,-20.1,-13.41,-6.71,17.64,120.0-130.0
120.0,2928.0,3.43,11.04,3.79,15.1,0.3,5.68,17.66,120.0-130.0
120.0,1582.0,2.45,11.89,3.72,15.7,0.32,6.71,17.63,120.0-130.0
120.0,1295.0,-0.11,13.11,3.33,16.78,4.67,6.68,17.64,120.0-130.0
120.0,0.0,-0.18,12.76,4.87,15.39,5.72,5.84,17.65,120.0-130.0
120.0,1697.0,-2.88,-6.35,11.34,-6.46,12.15,-5.87,17.66,120.0-130.0
