Speed,Voice,Acceleration X,Acceleration Y,Acceleration Z,Gyro X,Gyro Y,Gyro Z,Temperature,Speed_Range
120.0,0.0,-2.24,4.06,10.68,7.41,-13.69,5.65,19.08,120.0-130.0
120.0,182.0,-1.1,4.44,5.37,6.65,11.38,4.84,19.08,120.0-130.0
120.0,2928.0,-1.85,-3.08,11.02,-1.49,14.74,1.05,19.07,120.0-130.0
120.0,1895.0,-3.98,-8.03,14.35,-6.44,13.85,-3.82,19.07,120.0-130.0
120.0,1887.0,-3.08,-3.44,17.84,-2.51,-19.15,1.9,19.06,120.0-130.0
120.0,2928.0,-0.31,5.46,10.32,11.87,-11.96,5.81,19.1,120.0-130.0
120.0,1045.0,4.06,12.93,2.58,21.49,-0.9,5.91,19.09,120.0-130.0
120.0,0.0,6.83,13.96,-2.47,21.13,6.44,3.72,19.08,120.0-130.0
120.0,156.0,-3.51,-4.25,14.18,-3.67,10.3,-1.78,19.09,120.0-130.0
120.0,2928.0,-1.45,-6.26,11.25,-6.81,8.16,-4.16,19.08,120.0-130.0
120.0,2926.0,2.05,-8.42,7.2,-10.08,6.87,-6.51,19.11,120.0-130.0
120.0,2928.0,1.47,-10.39,8.36,-15.31,2.46,-8.43,19.08,120.0-130.0
120.0,469.0,1.74,4.75,8.5,10.86,-4.99,5.76,19.07,120.0-130.0
120.0,2928.0,2.47,7.92,6.26,13.86,-6.67,5.12,19.09,120.0-130.0
120.0,2579.0,3.01,9.75,4.17,16.25,-1.89,4.6,19.08,120.0-130.0
120.0,707.0,3.37,10.9,3.62,16.99,-1.21,4.52,19.07,120.0-130.0
120.0,0.0,-2.19,-1.16,9.94,-0.78,13.66,-2.59,19.08,120.0-130.0
120.0,2397.0,-3.18,-2.59,10.68,-2.65,15.93,-3.4,19.09,120.0-130.0
120.0,2934.0,-3.45,-3.13,11.65,-3.79,12.37,-3.43,19.08,120.0-130.0
120.0,2927.0,-2.75,-4.16,11.2,-5.7,12.04,-4.37,19.07,120.0-130.0
120.0,2928.0,2.94,-5.54,12.9,-6.19,-16.02,2.91,19.07,120.0-130.0
120.0,603.0,2.31,-4.6,11.46,-3.41,-12.6,3.2,19.07,120.0-130.0
120.0,2926.0,3.47,-4.01,11.65,-0.84,-13.69,3.4,19.06,120.0-130.0
120.0,2927.0,2.3,-2.0,10.98,2.24,-12.51,3.43,19.07,120.0-130.0
120.0,1175.0,-2.97,8.2,11.08,8.26,6.88,2.72,19.07,120.0-130.0
120.0,1739.0,-3.45,8.26,10.11,8.13,8.71,2.6,19.06,120.0-130.0
120.0,0.0,-3.41,7.57,11.0,6.1,8.22,1.88,19.06,120.0-130.0
120.0,659.0,-4.46,6.44,11.28,4.14,6.09,2.08,19.08,120.0-130.0
120.0,2928.0,2.54,-9.0,8.76,-13.33,-3.13,-6.55,19.05,120.0-130.0
120.0,2923.0,1.61,-9.23,9.29,-15.0,-4.87,-5.82,19.06,120.0-130.0
120.0,2928.0,0.96,-9.43,10.54,-15.65,-5.3,-5.3,19.07,120.0-130.0
120.0,2242.0,-0.03,-9.84,11.92,-16.93,-7.69,-5.42,19.04,120.0-130.0
120.0,1227.0,0.55,6.76,7.3,13.38,0.15,4.34,19.08,120.0-130.0
120.0,2928.0,1.79,7.65,6.23,14.22,-1.71,3.67,19.06,120.0-130.0
120.0,2257.0,2.1,8.56,5.09,14.44,-0.66,2.6,19.08,120.0-130.0
120.0,1375.0,2.04,9.33,4.26,14.9,0.05,2.36,19.06,120.0-130.0
120.0,214.0,-1.6,0.65,8.47,1.99,14.27,-1.75,19.06,120.0-130.0
120.0,0.0,-1.62,-0.37,9.61,0.47,12.24,-1.35,19.1,120.0-130.0
120.0,2928.0,-2.09,-1.26,9.93,-1.12,13.05,-1.14,19.07,120.0-130.0
120.0,2927.0,-2.29,-1.97,10.93,-2.39,12.16,-1.15,19.08,120.0-130.0
120.0,2926.0,2.76,-8.28,13.64,-11.45,-14.07,1.27,19.05,120.0-130.0
120.0,2281.0,4.0,-7.49,13.11,-9.27,-15.02,1.85,19.05,120.0-130.0
120.0,559.0,3.69,-6.53,12.73,-7.21,-15.43,2.01,19.07,120.0-130.0
120.0,2926.0,3.2,-4.86,12.1,-3.59,-14.47,2.16,19.06,120.0-130.0
120.0,2010.0,-1.53,9.96,7.91,11.16,5.61,2.19,19.04,120.0-130.0
120.0,1438.0,-2.95,9.83,8.71,10.2,6.55,1.9,19.08,120.0-130.0
120.0,0.0,-3.51,8.95,9.07,8.83,8.25,1.67,19.07,120.0-130.0
120.0,1210.0,-2.85,7.67,9.69,6.68,7.16,1.73,19.04,120.0-130.0
120.0,2925.0,1.12,-9.11,9.21,-13.6,-1.16,-7.15,19.07,120.0-130.0
120.0,2926.0,1.72,-9.35,9.27,-14.53,-2.49,-6.74,19.05,120.0-130.0
120.0,2928.0,1.3,-9.86,10.83,-16.18,-5.01,-6.43,19.08,120.0-130.0
120.0,752.0,0.35,-10.36,12.68,-17.16,-8.44,-5.59,19.07,120.0-130.0
120.0,2927.0,1.36,8.4,5.42,14.93,-0.95,4.95,19.07,120.0-130.0
120.0,2928.0,2.32,9.76,3.82,16.34,0.52,4.36,19.06,120.0-130.0
120.0,1621.0,2.61,10.66,2.82,16.67,3.22,3.23,19.09,120.0-130.0
120.0,0.0,2.62,10.87,3.25,15.25,1.78,2.49,19.09,120.0-130.0
120.0,0.0,-3.7,-2.38,11.02,-1.99,13.02,-3.75,19.07,120.0-130.0
120.0,2926.0,-3.33,-3.57,11.18,-3.27,12.66,-4.42,19.08,120.0-130.0
120.0,2928.0,-1.68,-4.69,10.4,-5.65,11.0,-4.83,19.07,120.0-130.0
120.0,2928.0,-0.26,-6.32,9.79,-9.27,6.7,-5.53,19.07,120.0-130.0
120.0,2803.0,2.03,-2.08,11.08,1.09,-9.4,4.74,19.06,120.0-130.0
120.0,1605.0,1.87,-0.08,10.7,4.34,-9.05,4.75,19.07,120.0-130.0
120.0,2926.0,1.19,2.44,10.19,7.35,-8.8,4.69,19.08,120.0-130.0
120.0,1347.0,0.91,4.72,9.2,10.81,-5.71,4.16,19.07,120.0-130.0
120.0,1302.0,-2.06,4.85,8.66,6.02,10.5,1.15,19.08,120.0-130.0
120.0,0.0,-2.19,3.16,8.31,4.48,12.28,-0.14,19.09,120.0-130.0
120.0,2302.0,-1.18,2.04,7.99,3.9,11.87,0.33,19.09,120.0-130.0
120.0,2928.0,-0.54,1.33,8.18,2.76,11.84,1.15,19.09,120.0-130.0
120.0,2928.0,-0.61,-10.19,15.61,-17.13,-13.15,-2.59,19.07,120.0-130.0
120.0,2928.0,0.59,-9.93,15.3,-15.74,-12.27,-1.43,19.07,120.0-130.0
120.0,601.0,1.31,-9.35,14.81,-14.09,-15.03,-0.88,19.08,120.0-130.0
120.0,2928.0,2.62,-8.59,14.25,-11.25,-13.98,-1.2,19.06,120.0-130.0
120.0,2927.0,0.45,10.85,4.73,13.19,2.55,2.34,19.07,120.0-130.0
120.0,728.0,0.28,10.77,5.79,13.09,3.86,1.64,19.08,120.0-130.0
120.0,730.0,-0.98,10.42,6.69,12.0,4.24,1.78,19.07,120.0-130.0
120.0,0.0,-1.29,10.1,6.54,11.8,6.27,2.69,19.07,120.0-130.0
120.0,1793.0,-2.05,-6.23,11.67,-8.76,5.08,-4.52,19.05,120.0-130.0
120.0,2928.0,-2.24,-6.57,10.42,-8.57,7.45,-3.64,19.07,120.0-130.0
120.0,2928.0,-0.08,-6.9,10.22,-9.1,5.19,-3.61,19.06,120.0-130.0
120.0,2928.0,-0.3,-7.48,9.65,-11.1,2.73,-4.71,19.07,120.0-130.0
120.0,479.0,2.33,0.54,10.66,4.65,-8.77,4.72,19.05,120.0-130.0
120.0,2523.0,0.25,1.7,10.24,5.76,-7.0,2.85,19.05,120.0-130.0
120.0,2928.0,0.93,2.9,10.06,7.87,-6.5,2.08,19.07,120.0-130.0
120.0,1358.0,1.24,4.5,9.4,9.27,-6.7,2.62,19.08,120.0-130.0
120.0,869.0,-2.45,5.41,7.99,6.31,11.78,0.07,19.07,120.0-130.0
120.0,0.0,-2.08,4.31,7.87,4.3,11.84,0.4,19.08,120.0-130.0
120.0,1442.0,-1.81,2.95,8.21,2.07,10.41,0.8,19.09,120.0-130.0
120.0,2927.0,-1.68,1.67,8.88,0.56,8.74,0.92,19.05,120.0-130.0
120.0,2928.0,1.63,-9.7,12.92,-14.87,-8.45,-3.21,19.06,120.0-130.0
120.0,2926.0,0.99,-9.26,14.04,-14.9,-10.88,-3.41,19.08,120.0-130.0
120.0,983.0,0.35,-8.72,14.3,-13.85,-12.57,-3.7,19.07,120.0-130.0
120.0,2928.0,0.41,-8.14,14.36,-12.5,-12.62,-3.23,19.08,120.0-130.0
120.0,2928.0,2.03,10.61,2.93,16.69,3.51,3.06,19.04,120.0-130.0
120.0,1328.0,1.72,10.86,3.54,15.44,4.26,3.24,19.05,120.0-130.0
120.0,1279.0,0.81,10.85,4.6,14.08,4.56,3.33,19.07,120.0-130.0
120.0,0.0,-0.83,11.0,5.44,13.44,6.62,3.49,19.06,120.0-130.0
120.0,2373.0,-2.37,-5.92,11.95,-8.11,8.45,-4.26,19.05,120.0-130.0
120.0,2926.0,-1.76,-6.8,11.89,-9.33,5.72,-4.8,19.07,120.0-130.0
120.0,2925.0,-0.49,-7.63,10.56,-10.14,4.76,-5.91,19.05,120.0-130.0
120.0,2927.0,1.25,-8.36,9.5,-11.43,3.22,-7.36,19.08,120.0-130.0
120.0,0.0,1.13,1.07,10.72,5.44,-9.46,3.64,19.09,120.0-130.0
120.0,2927.0,0.46,2.93,9.57,8.13,-6.16,3.38,19.07,120.0-130.0
120.0,2928.0,1.57,4.18,8.94,9.64,-5.83,3.88,19.07,120.0-130.0
120.0,2222.0,1.08,5.6,8.75,10.51,-5.59,5.07,19.07,120.0-130.0
120.0,621.0,-1.54,3.58,7.77,4.8,11.86,2.11,19.08,120.0-130.0
120.0,0.0,-1.52,2.6,7.99,3.61,10.63,2.25,19.07,120.0-130.0
120.0,2927.0,-1.6,1.77,8.12,3.06,13.03,1.47,19.06,120.0-130.0
120.0,2926.0,-1.59,0.92,8.62,1.72,13.31,0.13,19.06,120.0-130.0
120.0,2927.0,1.15,-9.37,15.66,-15.97,-13.44,-3.15,19.07,120.0-130.0
120.0,2928.0,0.06,-8.91,15.29,-15.2,-15.03,-3.58,19.04,120.0-130.0
120.0,0.0,1.07,-8.79,15.26,-13.31,-14.42,-2.72,19.05,120.0-130.0
120.0,2928.0,1.85,-8.22,14.14,-11.16,-14.6,-1.11,19.07,120.0-130.0
120.0,2928.0,1.35,10.14,4.64,12.34,1.98,2.3,19.06,120.0-130.0
120.0,1370.0,-0.09,10.42,5.13,12.31,3.45,3.21,19.06,120.0-130.0
120.0,717.0,-0.07,10.57,5.32,12.43,4.21,3.73,19.05,120.0-130.0
120.0,0.0,-1.18,10.57,6.35,11.79,3.84,3.72,19.02,120.0-130.0
120.0,2927.0,-1.38,-5.62,10.9,-6.48,11.0,-4.05,19.04,120.0-130.0
120.0,2927.0,0.24,-6.5,10.63,-8.7,4.58,-4.91,19.05,120.0-130.0
120.0,2928.0,-0.87,-7.39,10.74,-11.16,2.11,-5.82,19.05,120.0-130.0
120.0,2928.0,-0.5,-8.24,11.1,-11.79,1.98,-6.37,19.06,120.0-130.0
120.0,450.0,1.97,0.48,10.88,3.61,-9.38,2.86,19.06,120.0-130.0
120.0,2927.0,1.6,1.38,10.93,5.08,-9.92,3.33,19.05,120.0-130.0
120.0,2928.0,0.6,2.83,10.41,6.95,-7.72,4.25,19.06,120.0-130.0
120.0,479.0,0.07,4.11,10.29,8.8,-6.2,5.04,19.02,120.0-130.0
120.0,1437.0,-1.86,4.32,9.75,2.54,8.45,1.01,19.03,120.0-130.0
120.0,0.0,-2.62,3.19,9.95,1.06,7.58,1.03,19.04,120.0-130.0
120.0,2545.0,-2.58,2.37,8.69,1.43,8.71,1.24,19.04,120.0-130.0
120.0,2927.0,-0.94,1.08,8.68,1.98,9.38,0.63,19.03,120.0-130.0
120.0,2928.0,-0.33,-9.98,13.87,-15.28,-10.53,-4.4,19.04,120.0-130.0
120.0,2928.0,1.44,-9.79,15.0,-14.44,-11.69,-3.75,19.02,120.0-130.0
120.0,43.0,0.61,-8.97,14.93,-14.27,-13.9,-3.17,19.04,120.0-130.0
120.0,2927.0,0.91,-8.47,14.59,-12.79,-13.73,-2.19,19.04,120.0-130.0
120.0,2928.0,1.42,11.16,3.32,15.47,2.85,3.88,19.02,120.0-130.0
120.0,1122.0,1.12,11.19,4.33,13.56,2.75,4.19,19.05,120.0-130.0
120.0,839.0,-0.07,10.91,6.08,11.61,3.95,4.02,19.03,120.0-130.0
120.0,0.0,-1.75,10.35,7.53,10.08,5.4,3.49,19.05,120.0-130.0
120.0,2928.0,-1.69,-6.66,10.84,-9.28,7.49,-5.64,19.04,120.0-130.0
120.0,2928.0,-0.58,-8.13,10.41,-10.92,4.3,-6.97,19.04,120.0-130.0
120.0,2771.0,1.35,-8.99,10.03,-11.95,0.09,-7.51,19.03,120.0-130.0
120.0,2865.0,1.9,-9.15,8.48,-12.52,0.27,-8.22,19.04,120.0-130.0
120.0,562.0,0.35,3.49,10.79,9.59,-6.06,4.36,19.04,120.0-130.0
120.0,2928.0,-0.09,5.67,9.26,12.71,-2.78,4.91,19.04,120.0-130.0
120.0,1904.0,1.44,6.96,7.55,13.9,-2.23,5.52,19.03,120.0-130.0
120.0,1074.0,2.75,8.01,5.79,14.29,-1.74,5.88,19.04,120.0-130.0
120.0,0.0,-1.81,0.93,8.76,1.35,11.06,2.17,19.04,120.0-130.0
120.0,1392.0,-0.64,-0.21,9.03,0.5,11.83,1.61,19.05,120.0-130.0
120.0,2927.0,-1.93,-0.67,9.78,-0.59,10.79,0.25,19.02,120.0-130.0
120.0,2928.0,-1.67,-1.79,10.31,-1.64,11.78,-2.4,19.05,120.0-130.0
120.0,2928.0,0.76,-8.23,14.52,-11.34,-14.48,-1.79,19.04,120.0-130.0
120.0,608.0,2.97,-7.58,13.65,-9.02,-13.02,-1.47,19.03,120.0-130.0
120.0,2701.0,3.3,-6.84,13.48,-8.03,-15.75,-0.37,19.03,120.0-130.0
120.0,2925.0,2.83,-5.58,12.28,-5.38,-15.5,1.61,19.02,120.0-130.0
120.0,1555.0,-2.41,10.31,8.34,9.53,4.29,2.25,19.03,120.0-130.0
120.0,679.0,-3.42,9.55,8.93,8.86,5.72,3.61,19.04,120.0-130.0
120.0,0.0,-2.39,8.86,9.39,8.77,7.74,4.19,19.03,120.0-130.0
120.0,1179.0,-2.54,8.46,10.17,7.88,7.28,4.02,19.02,120.0-130.0
120.0,2929.0,0.16,-8.38,8.53,-11.24,3.31,-6.13,19.03,120.0-130.0
120.0,2928.0,1.14,-8.76,8.72,-11.83,0.81,-7.62,19.03,120.0-130.0
120.0,2927.0,1.44,-9.4,9.44,-12.99,-1.5,-8.2,19.02,120.0-130.0
120.0,2219.0,1.67,-10.01,10.76,-14.78,-5.55,-7.7,19.02,120.0-130.0
120.0,655.0,0.36,4.88,9.43,11.15,-3.98,3.79,19.02,120.0-130.0
120.0,2928.0,-0.23,6.16,8.6,12.0,-2.78,4.92,19.01,120.0-130.0
120.0,2733.0,1.02,6.9,7.63,12.63,-1.94,5.46,19.01,120.0-130.0
120.0,1618.0,1.25,7.6,7.1,12.55,-4.58,5.96,19.04,120.0-130.0
120.0,0.0,-1.48,2.3,7.73,2.86,12.47,1.76,19.04,120.0-130.0
120.0,0.0,-0.71,1.27,8.62,2.04,11.55,1.06,19.01,120.0-130.0
120.0,2927.0,-1.97,0.93,8.79,1.6,11.93,-0.53,19.02,120.0-130.0
120.0,2928.0,-1.92,0.24,9.05,1.34,13.17,-2.17,19.03,120.0-130.0
120.0,2928.0,1.2,-9.47,14.84,-14.17,-13.84,-3.85,19.01,120.0-130.0
120.0,2115.0,1.9,-9.2,14.72,-12.91,-14.85,-2.91,19.03,120.0-130.0
120.0,1535.0,2.35,-8.54,13.86,-11.04,-14.16,-1.15,19.02,120.0-130.0
120.0,2927.0,2.86,-7.83,13.17,-9.47,-12.7,0.72,19.03,120.0-130.0
120.0,1296.0,0.12,10.17,5.7,11.67,1.85,4.74,19.03,120.0-130.0
120.0,1168.0,-0.9,10.03,7.27,10.95,1.19,5.32,19.03,120.0-130.0
120.0,0.0,-1.03,10.03,7.47,11.48,4.56,5.01,19.04,120.0-130.0
120.0,0.0,-0.44,9.96,8.22,11.07,5.28,3.75,19.02,120.0-130.0
120.0,2927.0,-2.61,-5.85,10.26,-8.32,8.01,-6.51,19.02,120.0-130.0
120.0,2926.0,-1.57,-6.24,9.46,-8.34,6.85,-7.64,19.01,120.0-130.0
120.0,2763.0,-0.36,-6.91,9.59,-9.47,4.44,-8.06,19.04,120.0-130.0
120.0,2928.0,0.16,-7.94,9.56,-11.43,3.34,-7.24,19.01,120.0-130.0
120.0,711.0,1.28,0.34,10.64,4.53,-8.33,4.2,19.04,120.0-130.0
120.0,2928.0,0.97,1.48,10.26,6.39,-5.55,5.36,19.03,120.0-130.0
120.0,2928.0,1.35,3.08,9.91,8.39,-6.65,6.4,19.04,120.0-130.0
120.0,912.0,1.13,4.56,8.85,9.97,-4.53,5.9,19.03,120.0-130.0
120.0,237.0,-1.99,4.47,8.91,4.77,8.82,2.59,19.05,120.0-130.0
120.0,0.0,-1.78,3.1,8.1,3.96,11.18,0.54,19.02,120.0-130.0
120.0,2927.0,-0.84,1.64,8.21,2.92,9.95,-1.11,19.02,120.0-130.0
120.0,2928.0,-0.87,0.56,8.57,1.57,10.57,-2.14,19.02,120.0-130.0
120.0,2927.0,-0.3,-9.63,15.64,-16.2,-13.11,-5.84,19.02,120.0-130.0
120.0,1742.0,0.66,-9.58,15.88,-15.94,-14.88,-3.59,19.02,120.0-130.0
120.0,1712.0,1.15,-9.32,15.3,-14.76,-14.8,-1.03,19.04,120.0-130.0
120.0,2926.0,1.64,-8.57,14.27,-12.12,-15.46,1.46,19.01,120.0-130.0
120.0,1744.0,0.54,10.71,5.37,12.32,2.12,5.17,19.0,120.0-130.0
120.0,1280.0,-0.65,10.77,6.65,12.28,2.76,5.35,19.01,120.0-130.0
120.0,0.0,-1.94,10.51,8.33,11.73,4.3,4.3,18.99,120.0-130.0
120.0,0.0,-3.25,10.08,8.76,11.76,5.81,2.88,19.01,120.0-130.0
120.0,2927.0,-0.65,-7.4,10.51,-10.23,4.79,-7.76,18.99,120.0-130.0
120.0,2928.0,-0.69,-8.19,10.38,-11.91,2.53,-7.82,19.0,120.0-130.0
120.0,2927.0,0.2,-8.97,10.95,-13.81,0.78,-7.45,19.01,120.0-130.0
120.0,1867.0,0.46,-9.46,11.32,-15.4,-1.68,-6.26,19.0,120.0-130.0
120.0,657.0,0.96,3.09,9.37,7.33,-5.45,4.62,19.03,120.0-130.0
120.0,2701.0,1.44,4.12,8.49,8.46,-5.78,5.27,19.02,120.0-130.0
120.0,2085.0,1.37,5.25,8.04,9.32,-6.74,5.33,19.0,120.0-130.0
120.0,655.0,1.4,5.71,7.77,9.78,-4.23,4.11,18.99,120.0-130.0
120.0,0.0,-2.17,4.28,7.65,5.38,12.57,0.47,18.98,120.0-130.0
120.0,0.0,-1.83,3.09,7.83,4.28,12.51,-1.35,19.0,120.0-130.0
120.0,2928.0,-2.06,2.16,8.11,3.11,11.28,-1.84,19.01,120.0-130.0
120.0,2929.0,-1.24,1.21,8.33,2.22,11.47,-1.47,19.0,120.0-130.0
120.0,2509.0,0.14,-9.47,14.75,-15.25,-12.24,-3.82,19.0,120.0-130.0
120.0,2215.0,0.44,-9.11,14.64,-14.56,-11.87,-2.36,19.0,120.0-130.0
120.0,694.0,0.99,-8.86,14.21,-13.95,-11.14,-1.43,19.01,120.0-130.0
120.0,2927.0,0.55,-8.23,13.96,-13.01,-11.41,-0.66,18.99,120.0-130.0
120.0,2928.0,2.1,10.05,3.28,14.92,2.38,5.13,18.98,120.0-130.0
120.0,554.0,2.74,10.36,3.46,14.99,2.44,3.99,18.99,120.0-130.0
120.0,580.0,1.83,10.59,3.21,14.41,3.98,2.27,18.99,120.0-130.0
120.0,0.0,1.75,10.51,3.62,13.76,5.9,0.94,19.02,120.0-130.0
120.0,1507.0,-3.56,-3.89,12.09,-4.19,10.5,-5.1,19.02,120.0-130.0
120.0,2928.0,-2.67,-4.18,11.39,-4.02,11.35,-4.95,18.99,120.0-130.0
120.0,2303.0,-1.48,-4.61,11.02,-5.28,7.87,-4.71,18.98,120.0-130.0
120.0,2928.0,-0.35,-5.64,9.6,-7.42,8.62,-4.65,19.0,120.0-130.0
120.0,432.0,2.34,-3.61,11.89,-1.32,-12.88,5.12,19.0,120.0-130.0
120.0,1976.0,2.03,-2.34,10.91,1.12,-8.48,5.38,19.01,120.0-130.0
120.0,2928.0,3.12,-1.32,11.2,3.2,-9.72,5.35,18.97,120.0-130.0
120.0,505.0,2.46,-0.0,10.78,5.37,-10.22,4.77,19.0,120.0-130.0
120.0,769.0,-4.73,7.43,11.46,5.91,6.9,1.58,18.99,120.0-130.0
120.0,0.0,-3.71,6.61,10.9,5.75,9.28,0.34,18.99,120.0-130.0
120.0,625.0,-3.57,6.12,10.6,5.0,7.8,-0.02,19.0,120.0-130.0
120.0,2927.0,-3.25,5.05,9.66,3.64,8.79,0.11,19.01,120.0-130.0
120.0,2928.0,0.64,-9.98,10.61,-15.69,-4.85,-7.53,18.98,120.0-130.0
120.0,2554.0,0.61,-10.27,11.46,-16.42,-6.82,-5.53,19.02,120.0-130.0
120.0,382.0,0.89,-10.27,13.44,-17.06,-9.31,-3.65,18.98,120.0-130.0
120.0,2316.0,-0.33,-10.19,14.05,-17.43,-10.32,-2.91,19.0,120.0-130.0
120.0,2922.0,2.01,9.47,4.33,16.69,2.01,6.45,18.99,120.0-130.0
120.0,530.0,1.43,10.53,2.89,17.57,2.88,4.77,18.98,120.0-130.0
120.0,0.0,2.43,10.85,2.76,17.54,4.29,2.62,18.99,120.0-130.0
120.0,0.0,2.44,11.59,3.56,16.54,1.6,1.72,18.98,120.0-130.0
120.0,670.0,-2.42,-2.58,10.69,-2.63,13.6,-5.23,19.0,120.0-130.0
120.0,2928.0,-1.7,-3.63,10.41,-4.69,10.92,-6.07,18.99,120.0-130.0
120.0,2928.0,-1.47,-5.29,10.34,-8.32,9.15,-6.32,18.97,120.0-130.0
120.0,2823.0,-0.71,-7.14,9.96,-11.11,6.77,-6.08,18.99,120.0-130.0
120.0,0.0,2.69,-2.48,11.48,-0.68,-12.59,4.1,18.96,120.0-130.0
120.0,2736.0,2.85,-1.0,10.61,2.22,-9.77,4.8,18.99,120.0-130.0
120.0,2130.0,1.67,0.79,10.49,4.82,-10.94,5.24,18.98,120.0-130.0
120.0,398.0,1.07,2.03,9.7,7.5,-7.57,4.48,18.97,120.0-130.0
120.0,622.0,-1.99,6.43,8.77,7.87,8.93,2.42,18.98,120.0-130.0
120.0,0.0,-2.13,5.22,9.11,6.43,8.93,0.88,18.98,120.0-130.0
120.0,1887.0,-2.82,4.21,8.59,5.35,10.16,0.16,18.98,120.0-130.0
120.0,2927.0,-2.12,3.9,7.89,5.4,9.66,0.77,18.99,120.0-130.0
120.0,1942.0,0.01,-10.11,14.95,-17.72,-11.35,-5.07,19.0,120.0-130.0
120.0,2126.0,-0.2,-9.88,15.17,-18.29,-11.63,-3.75,18.98,120.0-130.0
120.0,0.0,-0.07,-10.41,15.58,-19.0,-11.66,-3.43,18.99,120.0-130.0
120.0,2346.0,-0.98,-10.61,15.98,-18.64,-12.34,-3.24,18.97,120.0-130.0
120.0,2928.0,2.38,8.56,3.21,12.96,0.06,3.15,18.97,120.0-130.0
120.0,783.0,3.73,8.48,3.87,12.14,-3.77,2.89,18.98,120.0-130.0
120.0,79.0,1.96,8.57,4.28,11.97,-3.46,2.71,18.99,120.0-130.0
120.0,0.0,1.29,9.15,3.7,14.28,1.17,2.74,18.97,120.0-130.0
120.0,0.0,-3.02,0.21,9.22,1.67,14.6,-2.49,18.99,120.0-130.0
120.0,1691.0,-2.18,0.04,9.34,1.66,14.71,-1.75,18.97,120.0-130.0
120.0,2928.0,-2.07,0.24,9.93,0.54,12.16,-1.03,18.97,120.0-130.0
120.0,2923.0,-3.12,0.61,9.77,0.03,14.27,-1.24,18.98,120.0-130.0
120.0,2625.0,2.04,-8.88,14.14,-12.69,-12.04,0.05,18.97,120.0-130.0
120.0,326.0,2.9,-8.8,13.83,-12.37,-13.0,-0.69,18.97,120.0-130.0
120.0,0.0,2.79,-9.16,15.13,-13.22,-16.57,-1.52,18.98,120.0-130.0
120.0,2928.0,1.77,-8.9,13.8,-11.69,-12.05,-1.81,18.98,120.0-130.0
120.0,1475.0,1.2,9.55,4.13,11.59,-0.21,1.27,18.98,120.0-130.0
120.0,394.0,0.66,8.96,5.05,11.45,1.2,1.98,18.97,120.0-130.0
120.0,810.0,1.96,8.82,5.7,11.88,-0.49,3.76,18.95,120.0-130.0
120.0,0.0,2.0,9.49,5.08,12.52,-1.18,5.17,18.99,120.0-130.0
120.0,0.0,-3.6,-1.89,11.03,-1.17,14.89,-1.43,18.97,120.0-130.0
120.0,2927.0,-3.52,-1.43,10.82,-1.18,13.87,-1.38,18.98,120.0-130.0
120.0,2928.0,-2.77,-1.99,11.25,-2.46,12.37,-2.48,18.97,120.0-130.0
120.0,2928.0,-3.83,-1.78,11.19,-2.49,10.74,-3.12,18.97,120.0-130.0
120.0,2928.0,3.91,-7.29,13.0,-8.76,-14.33,0.92,18.98,120.0-130.0
