Speed,Voice,Acceleration X,Acceleration Y,Acceleration Z,Gyro X,Gyro Y,Gyro Z,Temperature,Speed_Range
120.0,1726.0,0.01,0.04,9.8,-0.11,-0.01,-0.52,28.49,120.0-130.0
120.0,1535.0,-0.03,0.0,9.83,-0.13,0.02,-0.66,28.47,120.0-130.0
120.0,1535.0,-0.03,-0.0,9.8,-0.07,-0.02,-0.6,28.48,120.0-130.0
120.0,1147.0,-0.04,-0.0,9.81,-0.14,-0.01,-0.17,28.48,120.0-130.0
120.0,1198.0,-0.04,-0.03,9.81,-0.14,0.01,0.37,28.47,120.0-130.0
120.0,860.0,0.0,-0.02,9.79,-0.2,-0.01,0.6,28.48,120.0-130.0
120.0,1152.0,0.0,0.03,9.8,-0.16,-0.07,0.75,28.49,120.0-130.0
120.0,1535.0,-0.03,0.01,9.79,-0.19,0.01,0.64,28.5,120.0-130.0
120.0,1220.0,-0.01,0.02,9.72,-0.1,0.04,0.2,28.49,120.0-130.0
120.0,1229.0,-0.01,0.01,9.81,-0.13,-0.01,-0.09,28.49,120.0-130.0
120.0,1254.0,-0.03,0.01,9.79,-0.14,-0.04,-0.55,28.51,120.0-130.0
120.0,1535.0,-0.01,0.0,9.81,-0.1,0.04,-0.61,28.49,120.0-130.0
120.0,1082.0,-0.01,-0.02,9.77,-0.1,0.01,-0.38,28.47,120.0-130.0
120.0,983.0,-0.03,-0.05,9.84,-0.17,-0.05,-0.11,28.48,120.0-130.0
120.0,1554.0,-0.01,-0.04,9.79,-0.19,-0.01,0.32,28.47,120.0-130.0
120.0,1521.0,-0.04,-0.0,9.81,-0.16,-0.02,0.67,28.47,120.0-130.0
120.0,1629.0,-0.0,0.01,9.82,-0.17,0.04,0.72,28.5,120.0-130.0
120.0,1366.0,0.03,0.04,9.79,-0.16,0.02,0.67,28.47,120.0-130.0
120.0,1373.0,-0.01,0.02,9.83,-0.11,-0.04,0.21,28.49,120.0-130.0
120.0,1130.0,0.01,0.02,9.78,-0.13,0.01,-0.27,28.5,120.0-130.0
120.0,1136.0,0.01,-0.01,9.85,-0.16,-0.07,-0.53,28.48,120.0-130.0
120.0,1651.0,0.02,-0.01,9.79,-0.07,0.02,-0.63,28.48,120.0-130.0
120.0,1328.0,-0.02,-0.03,9.79,-0.17,0.02,-0.43,28.49,120.0-130.0
120.0,1322.0,-0.03,-0.03,9.79,-0.16,0.01,0.03,28.49,120.0-130.0
120.0,1467.0,-0.02,0.0,9.77,-0.17,0.04,0.49,28.47,120.0-130.0
120.0,1280.0,0.0,-0.03,9.8,-0.16,-0.01,0.72,28.47,120.0-130.0
120.0,1653.0,0.01,0.04,9.77,-0.16,-0.05,0.79,28.48,120.0-130.0
120.0,1595.0,0.0,0.04,9.81,-0.07,-0.02,0.6,28.48,120.0-130.0
120.0,1306.0,0.0,0.04,9.8,-0.1,-0.08,0.09,28.5,120.0-130.0
120.0,1444.0,0.02,0.02,9.81,-0.1,-0.01,-0.29,28.49,120.0-130.0
120.0,1258.0,-0.01,0.01,9.79,-0.08,-0.05,-0.72,28.47,120.0-130.0
120.0,1425.0,0.01,-0.03,9.77,-0.14,0.01,-0.63,28.49,120.0-130.0
120.0,1199.0,-0.02,-0.05,9.78,-0.2,-0.05,-0.27,28.47,120.0-130.0
120.0,1282.0,-0.04,-0.03,9.78,-0.14,0.01,0.02,28.47,120.0-130.0
120.0,1728.0,-0.01,-0.0,9.85,-0.23,-0.07,0.44,28.49,120.0-130.0
120.0,1472.0,-0.02,0.02,9.81,-0.2,-0.05,0.78,28.47,120.0-130.0
120.0,1609.0,-0.01,0.03,9.82,-0.22,0.04,0.73,28.5,120.0-130.0
120.0,1439.0,0.0,0.02,9.81,-0.2,0.02,0.56,28.49,120.0-130.0
120.0,1570.0,-0.01,0.04,9.74,-0.13,-0.04,-0.0,28.48,120.0-130.0
120.0,1573.0,0.01,0.01,9.78,-0.11,-0.1,-0.41,28.46,120.0-130.0
120.0,1525.0,-0.01,-0.01,9.82,-0.13,-0.04,-0.66,28.45,120.0-130.0
120.0,1524.0,-0.02,0.01,9.78,-0.1,-0.01,-0.63,28.46,120.0-130.0
120.0,1339.0,-0.01,-0.0,9.82,-0.08,-0.02,-0.31,28.47,120.0-130.0
120.0,1237.0,-0.03,-0.05,9.78,-0.17,-0.07,0.21,28.47,120.0-130.0
120.0,1256.0,-0.04,-0.02,9.79,-0.23,-0.02,0.69,28.48,120.0-130.0
120.0,1684.0,-0.01,-0.02,9.83,-0.17,-0.02,0.72,28.5,120.0-130.0
120.0,1519.0,-0.01,0.01,9.78,-0.22,0.01,0.66,28.46,120.0-130.0
120.0,1132.0,0.0,0.03,9.74,-0.17,-0.05,0.4,28.46,120.0-130.0
120.0,1442.0,-0.0,0.04,9.8,-0.13,0.01,-0.18,28.49,120.0-130.0
120.0,1398.0,0.02,-0.0,9.74,-0.2,-0.05,-0.5,28.47,120.0-130.0
120.0,1131.0,-0.0,-0.01,9.8,-0.13,-0.05,-0.76,28.5,120.0-130.0
120.0,1235.0,-0.01,-0.0,9.8,-0.11,-0.02,-0.53,28.48,120.0-130.0
120.0,1023.0,-0.05,-0.04,9.82,-0.11,-0.05,-0.09,28.46,120.0-130.0
120.0,1839.0,0.01,-0.02,9.79,-0.19,-0.05,0.29,28.47,120.0-130.0
120.0,1195.0,-0.01,0.01,9.75,-0.11,0.05,0.55,28.49,120.0-130.0
120.0,1857.0,-0.0,0.01,9.81,-0.2,-0.05,0.78,28.48,120.0-130.0
120.0,1742.0,-0.01,0.01,9.78,-0.22,0.01,0.64,28.48,120.0-130.0
120.0,946.0,-0.03,0.02,9.83,-0.22,-0.02,0.31,28.5,120.0-130.0
120.0,1607.0,0.02,-0.01,9.8,-0.17,-0.04,-0.18,28.49,120.0-130.0
120.0,1535.0,0.0,0.01,9.8,-0.1,0.04,-0.6,28.49,120.0-130.0
120.0,1020.0,-0.01,0.01,9.8,-0.07,0.05,-0.6,28.48,120.0-130.0
120.0,1646.0,-0.01,-0.02,9.81,-0.19,0.01,-0.49,28.49,120.0-130.0
120.0,1019.0,0.0,-0.04,9.8,-0.07,0.08,-0.09,28.48,120.0-130.0
120.0,1744.0,-0.01,-0.03,9.79,-0.2,-0.01,0.43,28.48,120.0-130.0
120.0,1353.0,0.01,-0.01,9.83,-0.2,0.04,0.75,28.47,120.0-130.0
120.0,1691.0,-0.02,0.01,9.79,-0.16,0.04,0.79,28.48,120.0-130.0
120.0,1267.0,-0.01,0.02,9.76,-0.1,0.01,0.58,28.48,120.0-130.0
120.0,1298.0,-0.01,-0.01,9.83,-0.14,0.01,0.17,28.48,120.0-130.0
120.0,1667.0,0.01,0.01,9.82,-0.13,-0.02,-0.32,28.47,120.0-130.0
120.0,1250.0,0.0,0.02,9.81,-0.14,-0.01,-0.61,28.47,120.0-130.0
120.0,1250.0,0.01,-0.01,9.76,-0.14,0.01,-0.63,28.47,120.0-130.0
120.0,1259.0,-0.01,-0.01,9.81,-0.11,-0.08,-0.35,28.48,120.0-130.0
120.0,1783.0,0.0,-0.03,9.8,-0.1,0.02,0.09,28.49,120.0-130.0
120.0,1427.0,-0.04,-0.04,9.8,-0.19,0.04,0.43,28.48,120.0-130.0
120.0,1503.0,0.0,0.02,9.81,-0.13,0.01,0.64,28.45,120.0-130.0
120.0,1520.0,0.02,0.01,9.84,-0.19,0.07,0.75,28.49,120.0-130.0
120.0,1302.0,0.01,0.02,9.82,-0.22,-0.05,0.52,28.49,120.0-130.0
120.0,1233.0,-0.04,0.0,9.78,-0.11,-0.04,0.17,28.48,120.0-130.0
120.0,1470.0,-0.0,0.02,9.82,-0.11,-0.02,-0.4,28.49,120.0-130.0
120.0,1313.0,-0.02,0.0,9.82,-0.1,0.04,-0.63,28.49,120.0-130.0
120.0,1405.0,-0.02,-0.03,9.82,-0.16,-0.01,-0.56,28.49,120.0-130.0
120.0,1365.0,-0.02,-0.02,9.81,-0.11,0.04,-0.41,28.48,120.0-130.0
120.0,1457.0,0.0,-0.02,9.8,-0.22,0.04,0.11,28.5,120.0-130.0
120.0,1589.0,-0.02,-0.03,9.77,-0.14,-0.02,0.56,28.49,120.0-130.0
120.0,1642.0,0.01,0.03,9.81,-0.14,-0.01,0.75,28.49,120.0-130.0
120.0,1505.0,-0.02,0.01,9.79,-0.19,-0.01,0.7,28.48,120.0-130.0
120.0,1297.0,-0.03,0.02,9.82,-0.14,-0.05,0.52,28.49,120.0-130.0
120.0,1489.0,0.01,0.07,9.8,-0.16,-0.02,0.03,28.48,120.0-130.0
120.0,1187.0,-0.02,0.01,9.82,-0.17,-0.02,-0.5,28.45,120.0-130.0
120.0,1424.0,-0.02,0.01,9.8,-0.08,0.01,-0.69,28.47,120.0-130.0
120.0,1179.0,-0.0,-0.02,9.81,-0.11,-0.01,-0.58,28.48,120.0-130.0
120.0,640.0,-0.01,-0.0,9.79,-0.11,0.05,-0.21,28.49,120.0-130.0
120.0,1535.0,-0.01,0.0,9.79,-0.14,0.01,0.27,28.48,120.0-130.0
120.0,1683.0,0.01,-0.01,9.8,-0.14,0.01,0.53,28.47,120.0-130.0
120.0,1660.0,0.01,-0.02,9.79,-0.23,0.05,0.82,28.49,120.0-130.0
120.0,1566.0,0.0,0.02,9.81,-0.19,0.02,0.69,28.48,120.0-130.0
120.0,1383.0,-0.0,-0.0,9.81,-0.2,0.01,0.35,28.48,120.0-130.0
120.0,1447.0,-0.0,0.02,9.81,-0.13,0.02,-0.09,28.48,120.0-130.0
120.0,1021.0,0.03,0.01,9.8,-0.05,-0.07,-0.5,28.49,120.0-130.0
120.0,1586.0,-0.01,-0.01,9.78,-0.13,0.01,-0.69,28.48,120.0-130.0
120.0,1456.0,-0.01,0.0,9.79,-0.14,-0.02,-0.61,28.48,120.0-130.0
120.0,1152.0,-0.02,-0.02,9.82,-0.1,0.01,-0.23,28.48,120.0-130.0
120.0,1674.0,-0.02,-0.02,9.8,-0.17,-0.01,0.27,28.49,120.0-130.0
120.0,1605.0,0.03,-0.01,9.83,-0.28,-0.05,0.66,28.48,120.0-130.0
120.0,1882.0,0.02,0.02,9.83,-0.19,-0.01,0.75,28.48,120.0-130.0
120.0,1673.0,-0.01,-0.0,9.84,-0.23,0.04,0.64,28.49,120.0-130.0
120.0,1264.0,0.01,-0.01,9.79,-0.17,-0.04,0.27,28.48,120.0-130.0
120.0,1298.0,0.0,0.04,9.8,-0.13,-0.08,-0.18,28.5,120.0-130.0
120.0,1712.0,0.0,0.01,9.83,-0.17,-0.02,-0.5,28.49,120.0-130.0
120.0,1396.0,0.0,-0.01,9.8,-0.08,0.07,-0.67,28.48,120.0-130.0
120.0,1559.0,-0.0,-0.02,9.79,-0.13,0.01,-0.47,28.49,120.0-130.0
120.0,1158.0,-0.03,-0.02,9.79,-0.13,-0.02,0.02,28.48,120.0-130.0
120.0,1302.0,0.01,-0.01,9.8,-0.11,-0.05,0.32,28.48,120.0-130.0
120.0,1484.0,-0.04,-0.02,9.8,-0.14,-0.05,0.69,28.49,120.0-130.0
120.0,1328.0,0.03,0.0,9.78,-0.16,0.05,0.78,28.47,120.0-130.0
120.0,1417.0,-0.01,0.03,9.82,-0.19,0.08,0.61,28.47,120.0-130.0
120.0,1170.0,-0.01,0.02,9.82,-0.2,-0.01,0.24,28.48,120.0-130.0
120.0,1151.0,0.02,0.03,9.79,-0.2,-0.05,-0.26,28.45,120.0-130.0
120.0,1273.0,0.0,0.02,9.85,-0.08,-0.01,-0.64,28.47,120.0-130.0
120.0,1689.0,-0.03,-0.0,9.79,-0.11,0.02,-0.67,28.48,120.0-130.0
120.0,826.0,-0.02,-0.03,9.8,-0.13,-0.01,-0.47,28.48,120.0-130.0
120.0,1306.0,-0.01,-0.01,9.8,-0.19,-0.02,-0.08,28.47,120.0-130.0
120.0,1605.0,-0.02,-0.02,9.79,-0.1,-0.05,0.43,28.48,120.0-130.0
120.0,1514.0,-0.01,-0.01,9.82,-0.13,0.07,0.67,28.47,120.0-130.0
120.0,1149.0,0.0,-0.01,9.81,-0.22,-0.05,0.75,28.49,120.0-130.0
120.0,1789.0,0.0,0.01,9.84,-0.17,-0.05,0.53,28.5,120.0-130.0
120.0,1405.0,0.01,-0.0,9.84,-0.17,-0.05,0.11,28.48,120.0-130.0
120.0,1685.0,-0.01,0.02,9.78,-0.14,0.01,-0.46,28.48,120.0-130.0
120.0,1255.0,-0.0,-0.02,9.82,-0.1,-0.02,-0.64,28.47,120.0-130.0
120.0,1535.0,-0.01,-0.01,9.83,-0.1,-0.04,-0.66,28.47,120.0-130.0
120.0,1062.0,-0.01,-0.02,9.82,-0.13,0.02,-0.37,28.48,120.0-130.0
120.0,1311.0,-0.01,-0.01,9.79,-0.11,-0.08,0.14,28.48,120.0-130.0
120.0,1886.0,-0.0,-0.04,9.84,-0.16,-0.05,0.37,28.49,120.0-130.0
120.0,1040.0,-0.02,0.0,9.79,-0.16,-0.01,0.79,28.49,120.0-130.0
120.0,1355.0,0.01,0.03,9.82,-0.26,-0.04,0.82,28.46,120.0-130.0
120.0,1554.0,-0.01,-0.03,9.81,-0.16,-0.07,0.4,28.48,120.0-130.0
120.0,1258.0,0.0,0.01,9.81,-0.16,-0.04,0.09,28.49,120.0-130.0
120.0,1616.0,0.03,0.03,9.83,-0.13,-0.07,-0.46,28.49,120.0-130.0
120.0,1372.0,0.01,-0.01,9.78,-0.19,0.01,-0.66,28.5,120.0-130.0
120.0,1281.0,-0.02,-0.02,9.78,-0.08,-0.05,-0.61,28.48,120.0-130.0
120.0,1605.0,0.0,-0.03,9.78,-0.08,-0.04,-0.32,28.47,120.0-130.0
120.0,1331.0,-0.01,-0.03,9.85,-0.19,-0.01,0.15,28.5,120.0-130.0
120.0,1265.0,-0.04,-0.01,9.81,-0.22,-0.1,0.6,28.48,120.0-130.0
120.0,1363.0,-0.03,0.0,9.8,-0.2,0.01,0.81,28.49,120.0-130.0
120.0,1463.0,-0.03,0.0,9.78,-0.22,-0.04,0.73,28.48,120.0-130.0
120.0,1616.0,0.0,0.03,9.85,-0.16,-0.1,0.44,28.47,120.0-130.0
120.0,1121.0,-0.02,0.05,9.78,-0.11,0.04,-0.11,28.48,120.0-130.0
120.0,1535.0,0.01,0.03,9.75,-0.16,-0.01,-0.53,28.48,120.0-130.0
120.0,1397.0,-0.0,-0.0,9.82,-0.11,-0.04,-0.69,28.49,120.0-130.0
120.0,1535.0,-0.02,-0.02,9.81,-0.14,-0.01,-0.53,28.49,120.0-130.0
120.0,1326.0,-0.03,-0.03,9.84,-0.17,-0.01,-0.15,28.49,120.0-130.0
120.0,1268.0,-0.01,-0.03,9.8,-0.14,0.02,0.32,28.47,120.0-130.0
120.0,1012.0,-0.02,-0.03,9.8,-0.14,-0.01,0.61,28.52,120.0-130.0
120.0,1305.0,0.01,-0.03,9.78,-0.2,-0.04,0.81,28.49,120.0-130.0
120.0,1297.0,-0.01,0.06,9.82,-0.2,-0.01,0.7,28.48,120.0-130.0
120.0,1757.0,-0.01,0.04,9.81,-0.1,-0.04,0.24,28.48,120.0-130.0
120.0,1322.0,-0.0,0.05,9.82,-0.14,-0.07,-0.14,28.49,120.0-130.0
120.0,1503.0,0.0,0.03,9.82,-0.1,-0.01,-0.56,28.47,120.0-130.0
120.0,1110.0,-0.01,-0.03,9.81,-0.08,-0.01,-0.66,28.51,120.0-130.0
120.0,1373.0,-0.01,-0.02,9.77,-0.11,-0.01,-0.5,28.49,120.0-130.0
120.0,1143.0,-0.01,-0.03,9.8,-0.13,-0.05,-0.17,28.49,120.0-130.0
120.0,1398.0,-0.01,-0.01,9.8,-0.16,0.02,0.31,28.49,120.0-130.0
120.0,1327.0,0.01,-0.01,9.8,-0.23,-0.07,0.75,28.49,120.0-130.0
120.0,1644.0,0.0,0.01,9.77,-0.19,-0.02,0.81,28.49,120.0-130.0
120.0,1430.0,-0.01,0.01,9.78,-0.22,0.02,0.61,28.49,120.0-130.0
120.0,1283.0,0.01,0.01,9.77,-0.13,0.01,0.26,28.48,120.0-130.0
120.0,1741.0,-0.03,0.02,9.8,-0.17,0.01,-0.27,28.5,120.0-130.0
120.0,1388.0,0.01,0.01,9.78,-0.11,0.01,-0.69,28.5,120.0-130.0
120.0,1186.0,0.0,-0.03,9.8,-0.13,-0.04,-0.7,28.49,120.0-130.0
120.0,1479.0,-0.03,-0.04,9.82,-0.11,0.04,-0.46,28.47,120.0-130.0
120.0,1150.0,-0.01,-0.03,9.81,-0.14,0.01,-0.0,28.48,120.0-130.0
120.0,1503.0,0.04,-0.03,9.81,-0.2,0.07,0.5,28.51,120.0-130.0
120.0,1409.0,-0.03,-0.02,9.78,-0.17,0.04,0.64,28.5,120.0-130.0
120.0,1391.0,-0.01,0.01,9.83,-0.22,-0.02,0.78,28.47,120.0-130.0
120.0,1517.0,-0.01,0.01,9.8,-0.19,0.05,0.61,28.51,120.0-130.0
120.0,1472.0,-0.01,0.05,9.82,-0.14,-0.02,-0.0,28.49,120.0-130.0
120.0,1360.0,0.03,0.01,9.8,-0.14,-0.02,-0.32,28.49,120.0-130.0
120.0,1476.0,0.0,-0.0,9.78,-0.11,-0.02,-0.58,28.5,120.0-130.0
120.0,946.0,-0.02,-0.03,9.81,-0.08,-0.05,-0.64,28.5,120.0-130.0
120.0,1285.0,-0.0,-0.03,9.8,-0.1,-0.02,-0.38,28.48,120.0-130.0
120.0,1648.0,-0.03,-0.04,9.86,-0.16,-0.01,0.03,28.49,120.0-130.0
120.0,883.0,-0.0,-0.0,9.77,-0.16,-0.08,0.49,28.48,120.0-130.0
120.0,1535.0,-0.02,-0.02,9.81,-0.2,-0.05,0.78,28.48,120.0-130.0
120.0,1267.0,-0.02,-0.03,9.81,-0.2,0.05,0.76,28.48,120.0-130.0
120.0,1291.0,0.01,0.02,9.81,-0.2,0.01,0.58,28.49,120.0-130.0
120.0,1839.0,0.02,0.03,9.79,-0.16,-0.04,0.02,28.5,120.0-130.0
120.0,1354.0,0.0,0.0,9.82,-0.16,0.04,-0.46,28.48,120.0-130.0
120.0,1422.0,0.01,-0.02,9.85,-0.1,-0.04,-0.75,28.48,120.0-130.0
120.0,1129.0,-0.03,-0.02,9.82,-0.11,0.01,-0.61,28.49,120.0-130.0
120.0,1680.0,-0.02,-0.01,9.78,-0.14,0.04,-0.24,28.49,120.0-130.0
120.0,1277.0,-0.02,-0.01,9.77,-0.14,-0.02,0.24,28.47,120.0-130.0
120.0,1295.0,-0.03,0.01,9.78,-0.17,0.02,0.6,28.5,120.0-130.0
120.0,1237.0,-0.0,-0.01,9.8,-0.23,-0.02,0.73,28.49,120.0-130.0
120.0,1254.0,0.02,0.03,9.82,-0.19,0.01,0.76,28.52,120.0-130.0
120.0,1381.0,0.0,0.04,9.81,-0.07,-0.08,0.38,28.48,120.0-130.0
120.0,1394.0,0.0,0.02,9.76,-0.08,0.02,-0.14,28.48,120.0-130.0
120.0,1392.0,0.02,0.02,9.84,-0.1,-0.05,-0.44,28.49,120.0-130.0
120.0,1488.0,-0.0,-0.02,9.82,-0.11,0.05,-0.66,28.48,120.0-130.0
120.0,1288.0,-0.0,-0.0,9.82,-0.08,0.01,-0.58,28.47,120.0-130.0
120.0,1335.0,-0.01,0.01,9.8,-0.17,0.01,-0.11,28.48,120.0-130.0
120.0,1381.0,-0.03,-0.02,9.78,-0.22,-0.04,0.23,28.47,120.0-130.0
120.0,1450.0,-0.01,-0.02,9.86,-0.13,-0.08,0.66,28.49,120.0-130.0
120.0,1535.0,-0.01,0.02,9.81,-0.19,0.05,0.78,28.49,120.0-130.0
120.0,1943.0,-0.02,0.04,9.82,-0.13,-0.02,0.6,28.48,120.0-130.0
120.0,1287.0,0.02,0.01,9.81,-0.19,0.02,0.37,28.48,120.0-130.0
120.0,1681.0,0.04,0.04,9.81,-0.14,0.02,-0.15,28.48,120.0-130.0
120.0,1354.0,0.03,0.01,9.78,-0.14,-0.01,-0.63,28.49,120.0-130.0
120.0,1131.0,0.0,-0.01,9.81,-0.16,0.07,-0.73,28.49,120.0-130.0
120.0,1126.0,-0.01,-0.01,9.79,-0.14,0.05,-0.58,28.51,120.0-130.0
120.0,1754.0,-0.04,-0.02,9.81,-0.13,-0.02,-0.12,28.48,120.0-130.0
120.0,1558.0,0.0,-0.06,9.79,-0.17,-0.04,0.41,28.48,120.0-130.0
120.0,1535.0,-0.02,0.02,9.8,-0.13,-0.01,0.7,28.49,120.0-130.0
120.0,752.0,-0.0,-0.0,9.81,-0.17,-0.04,0.84,28.49,120.0-130.0
120.0,1392.0,-0.0,0.02,9.8,-0.2,0.02,0.64,28.5,120.0-130.0
120.0,1616.0,0.01,0.04,9.8,-0.08,0.01,0.12,28.52,120.0-130.0
120.0,1762.0,-0.0,0.0,9.79,-0.17,0.01,-0.34,28.52,120.0-130.0
120.0,1498.0,-0.01,0.01,9.81,-0.1,0.05,-0.64,28.5,120.0-130.0
120.0,1203.0,0.03,-0.01,9.78,-0.08,-0.05,-0.67,28.5,120.0-130.0
120.0,1647.0,-0.03,-0.03,9.79,-0.14,0.02,-0.44,28.5,120.0-130.0
120.0,1510.0,-0.01,-0.02,9.8,-0.16,-0.04,0.08,28.49,120.0-130.0
120.0,1478.0,0.01,0.0,9.79,-0.17,-0.08,0.43,28.46,120.0-130.0
120.0,1418.0,-0.04,0.0,9.81,-0.17,0.01,0.73,28.47,120.0-130.0
120.0,1571.0,0.0,0.01,9.79,-0.23,-0.02,0.75,28.51,120.0-130.0
120.0,1600.0,-0.02,0.02,9.81,-0.13,-0.02,0.5,28.5,120.0-130.0
120.0,1233.0,0.0,-0.01,9.8,-0.13,-0.05,0.17,28.5,120.0-130.0
120.0,1680.0,0.0,0.01,9.84,-0.08,-0.02,-0.4,28.51,120.0-130.0
120.0,1246.0,-0.03,0.04,9.81,-0.08,0.05,-0.66,28.49,120.0-130.0
120.0,1620.0,0.0,-0.03,9.8,-0.08,-0.02,-0.63,28.5,120.0-130.0
120.0,1634.0,-0.04,-0.06,9.81,-0.17,-0.02,-0.4,28.49,120.0-130.0
120.0,1481.0,-0.01,-0.05,9.81,-0.13,-0.05,0.06,28.49,120.0-130.0
120.0,1457.0,-0.03,-0.04,9.83,-0.17,-0.02,0.49,28.51,120.0-130.0
120.0,1271.0,-0.03,0.02,9.81,-0.19,-0.08,0.82,28.49,120.0-130.0
120.0,1449.0,0.0,0.03,9.83,-0.16,-0.08,0.75,28.49,120.0-130.0
120.0,1360.0,-0.01,0.03,9.79,-0.22,0.04,0.44,28.49,120.0-130.0
120.0,1479.0,0.01,0.01,9.79,-0.14,-0.07,-0.05,28.51,120.0-130.0
120.0,1016.0,0.02,0.01,9.8,-0.07,-0.02,-0.56,28.51,120.0-130.0
120.0,1202.0,-0.02,-0.0,9.77,-0.11,0.07,-0.66,28.5,120.0-130.0
120.0,1485.0,-0.02,-0.0,9.79,-0.1,-0.07,-0.61,28.5,120.0-130.0
120.0,1430.0,-0.03,-0.0,9.81,-0.08,-0.01,-0.27,28.48,120.0-130.0
120.0,1200.0,-0.02,-0.06,9.81,-0.23,-0.07,0.26,28.49,120.0-130.0
120.0,1458.0,-0.03,-0.01,9.8,-0.19,-0.01,0.58,28.51,120.0-130.0
120.0,1520.0,-0.01,0.01,9.83,-0.17,0.01,0.79,28.49,120.0-130.0
120.0,1455.0,0.0,-0.01,9.81,-0.16,-0.02,0.69,28.48,120.0-130.0
120.0,1710.0,0.02,0.0,9.81,-0.23,-0.05,0.32,28.52,120.0-130.0
120.0,1085.0,-0.0,0.0,9.78,-0.08,0.04,-0.05,28.5,120.0-130.0
120.0,1462.0,0.0,0.02,9.8,-0.05,-0.04,-0.53,28.49,120.0-130.0
120.0,1456.0,0.0,-0.03,9.79,-0.11,-0.01,-0.7,28.51,120.0-130.0
120.0,1707.0,-0.03,0.0,9.8,-0.11,0.01,-0.52,28.48,120.0-130.0
120.0,1424.0,-0.05,-0.02,9.82,-0.14,0.02,-0.24,28.47,120.0-130.0
120.0,1148.0,-0.03,0.01,9.79,-0.16,-0.02,0.24,28.5,120.0-130.0
120.0,1424.0,-0.04,-0.01,9.81,-0.16,-0.02,0.69,28.48,120.0-130.0
120.0,1453.0,0.0,0.0,9.81,-0.22,-0.02,0.84,28.49,120.0-130.0
120.0,1166.0,-0.01,0.05,9.83,-0.17,-0.04,0.78,28.5,120.0-130.0
120.0,1403.0,-0.02,0.04,9.81,-0.14,-0.07,0.29,28.5,120.0-130.0
120.0,1520.0,0.0,0.03,9.83,-0.14,0.02,-0.21,28.52,120.0-130.0
120.0,1603.0,-0.01,0.03,9.8,-0.11,-0.05,-0.64,28.5,120.0-130.0
120.0,1636.0,-0.04,-0.01,9.78,-0.14,0.01,-0.67,28.5,120.0-130.0
120.0,1922.0,-0.03,-0.02,9.78,-0.1,0.01,-0.5,28.49,120.0-130.0
120.0,1187.0,-0.01,-0.03,9.77,-0.16,-0.01,-0.09,28.49,120.0-130.0
120.0,1567.0,-0.01,-0.02,9.81,-0.16,0.04,0.47,28.51,120.0-130.0
120.0,1591.0,0.01,-0.02,9.83,-0.19,-0.07,0.75,28.5,120.0-130.0
120.0,1147.0,0.02,0.04,9.78,-0.1,-0.04,0.79,28.51,120.0-130.0
120.0,1289.0,-0.0,0.04,9.83,-0.14,0.02,0.55,28.48,120.0-130.0
120.0,1851.0,-0.01,0.02,9.87,-0.14,0.01,0.11,28.5,120.0-130.0
120.0,1315.0,0.01,0.05,9.83,-0.13,0.02,-0.18,28.48,120.0-130.0
120.0,1566.0,-0.04,0.01,9.81,-0.08,0.01,-0.66,28.52,120.0-130.0
120.0,1458.0,0.0,0.0,9.8,-0.11,0.04,-0.66,28.5,120.0-130.0
120.0,1569.0,-0.04,-0.02,9.77,-0.14,0.04,-0.5,28.49,120.0-130.0
120.0,1079.0,-0.01,-0.06,9.82,-0.22,0.01,-0.02,28.5,120.0-130.0
120.0,1440.0,-0.01,-0.04,9.85,-0.22,-0.02,0.46,28.5,120.0-130.0
120.0,1533.0,0.0,0.01,9.8,-0.22,-0.04,0.75,28.49,120.0-130.0
120.0,1083.0,0.0,0.04,9.84,-0.19,-0.07,0.84,28.48,120.0-130.0
120.0,1776.0,-0.01,-0.01,9.78,-0.22,-0.01,0.58,28.49,120.0-130.0
120.0,338.0,-1.35,1.56,10.38,0.1,-7.93,1.79,28.35,120.0-130.0
120.0,2928.0,0.91,3.36,10.75,3.41,-6.13,3.71,28.36,120.0-130.0
120.0,2928.0,3.05,4.72,9.9,6.46,-2.36,5.77,28.36,120.0-130.0
120.0,2071.0,4.72,-4.6,12.24,-8.53,-8.52,-3.86,28.34,120.0-130.0
120.0,2121.0,2.19,-2.74,11.49,-6.93,-12.05,-1.04,28.36,120.0-130.0
120.0,926.0,-1.72,0.75,10.55,-2.49,-10.32,2.08,28.37,120.0-130.0
120.0,2928.0,0.83,3.85,11.43,2.16,-8.63,4.91,28.37,120.0-130.0
120.0,2927.0,1.86,-4.82,9.8,-8.23,-2.17,-6.2,28.34,120.0-130.0
120.0,2927.0,3.31,-3.5,9.84,-6.08,-3.67,-4.29,28.36,120.0-130.0
120.0,1803.0,-1.01,-0.29,11.17,-2.31,-4.72,-0.69,28.36,120.0-130.0
120.0,1839.0,1.39,3.61,13.14,2.15,-7.91,3.8,28.35,120.0-130.0
120.0,1337.0,2.05,-5.01,9.38,-8.53,-5.62,-6.59,28.35,120.0-130.0
120.0,2928.0,1.52,-3.45,9.55,-5.54,-3.04,-2.99,28.34,120.0-130.0
120.0,1559.0,-1.93,0.53,12.46,-0.97,-4.43,2.35,28.36,120.0-130.0
120.0,0.0,4.03,4.14,13.31,2.67,-10.16,7.32,28.36,120.0-130.0
120.0,2223.0,2.7,-3.89,6.97,-6.05,-0.18,-4.39,28.35,120.0-130.0
120.0,454.0,-0.62,-1.3,10.29,-1.12,3.38,-0.72,28.35,120.0-130.0
120.0,0.0,2.12,3.35,14.28,1.51,-8.66,4.36,28.35,120.0-130.0
120.0,2651.0,7.47,5.11,10.82,3.18,-12.52,7.08,28.37,120.0-130.0
120.0,0.0,1.7,-2.78,8.51,-4.26,-0.57,-3.8,28.36,120.0-130.0
120.0,0.0,-0.18,1.16,13.14,-0.94,-4.75,1.71,28.36,120.0-130.0
120.0,0.0,5.13,4.94,11.73,2.92,-7.96,6.48,28.35,120.0-130.0
120.0,0.0,4.73,4.62,8.99,6.83,0.25,7.89,28.34,120.0-130.0
120.0,0.0,-2.89,-1.02,11.16,-2.28,-0.69,0.93,28.34,120.0-130.0
120.0,933.0,0.8,3.89,11.13,3.37,-1.55,5.66,28.35,120.0-130.0
120.0,356.0,5.29,4.66,9.43,6.24,0.24,7.66,28.35,120.0-130.0
120.0,0.0,-1.17,4.13,10.48,5.56,-0.53,6.58,28.34,120.0-130.0
120.0,0.0,-3.56,2.46,10.49,1.69,-2.3,2.15,28.33,120.0-130.0
120.0,2813.0,4.52,4.61,11.24,3.2,-6.4,5.37,28.35,120.0-130.0
120.0,0.0,6.02,4.77,10.09,5.69,-2.75,6.3,28.35,120.0-130.0
120.0,0.0,-2.43,4.43,10.26,7.44,4.01,5.16,28.35,120.0-130.0
120.0,2928.0,0.13,2.45,12.87,-0.3,-8.34,3.25,28.34,120.0-130.0
120.0,0.0,6.09,4.71,11.45,3.49,-10.0,6.73,28.33,120.0-130.0
120.0,0.0,1.79,5.27,7.99,8.37,4.68,7.48,28.34,120.0-130.0
120.0,2027.0,-4.34,4.49,9.94,7.46,7.58,5.98,28.35,120.0-130.0
120.0,935.0,-1.01,2.68,12.09,0.68,-7.0,3.95,28.35,120.0-130.0
120.0,0.0,4.55,4.57,9.51,5.17,-2.45,6.26,28.35,120.0-130.0
120.0,1127.0,2.23,4.61,8.89,7.46,2.1,6.35,28.34,120.0-130.0
120.0,2207.0,-3.85,4.21,9.79,7.17,4.31,4.59,28.35,120.0-130.0
120.0,0.0,-0.55,2.55,11.78,0.99,-7.82,2.87,28.33,120.0-130.0
120.0,2867.0,3.91,4.63,9.89,4.39,-5.9,5.81,28.32,120.0-130.0
120.0,2113.0,3.21,4.62,9.69,6.57,-1.72,6.82,28.35,120.0-130.0
120.0,0.0,-1.64,4.22,10.27,7.2,2.24,6.13,28.34,120.0-130.0
120.0,1358.0,0.09,2.63,11.5,0.25,-7.39,3.88,28.36,120.0-130.0
120.0,2369.0,5.95,5.02,11.5,4.08,-8.29,6.79,28.34,120.0-130.0
120.0,0.0,3.89,5.39,10.09,7.35,-2.22,7.31,28.34,120.0-130.0
120.0,2815.0,-1.25,4.52,9.85,8.07,5.32,5.46,28.33,120.0-130.0
120.0,1712.0,-0.11,2.05,12.43,-1.0,-10.6,2.82,28.33,120.0-130.0
120.0,0.0,3.92,4.93,10.46,4.36,-6.29,5.23,28.35,120.0-130.0
120.0,1478.0,1.95,5.24,8.82,7.62,1.4,6.27,28.35,120.0-130.0
120.0,2927.0,-3.79,4.66,9.24,8.04,5.82,5.4,28.32,120.0-130.0
120.0,0.0,-0.52,1.79,12.04,0.57,-6.74,2.62,28.34,120.0-130.0
120.0,1245.0,2.79,4.33,10.42,4.42,-4.83,6.29,28.34,120.0-130.0
120.0,2928.0,2.47,5.22,7.49,7.21,0.22,7.49,28.35,120.0-130.0
120.0,0.0,-3.82,4.39,9.57,7.75,4.89,6.26,28.34,120.0-130.0
120.0,0.0,-1.66,2.1,10.9,0.48,-5.42,2.84,28.33,120.0-130.0
120.0,2633.0,4.07,4.57,11.29,3.64,-6.9,5.63,28.34,120.0-130.0
120.0,0.0,5.04,4.63,10.13,5.9,-4.14,6.36,28.34,120.0-130.0
120.0,0.0,-1.52,4.16,10.88,6.71,-0.05,5.23,28.33,120.0-130.0
120.0,2928.0,-1.26,1.83,11.66,-1.45,-8.35,1.75,28.34,120.0-130.0
120.0,0.0,4.57,4.48,11.24,2.91,-8.98,5.25,28.32,120.0-130.0
120.0,0.0,4.21,5.15,8.82,7.04,-0.47,6.88,28.32,120.0-130.0
120.0,1355.0,-2.77,5.04,9.18,8.83,6.81,6.39,28.33,120.0-130.0
120.0,43.0,-0.48,1.01,12.96,-0.86,-8.08,2.78,28.33,120.0-130.0
120.0,0.0,3.61,4.59,10.79,3.7,-8.25,6.07,28.35,120.0-130.0
120.0,1796.0,4.2,4.73,9.33,6.94,-0.11,7.05,28.33,120.0-130.0
120.0,0.0,-4.39,4.98,9.24,7.87,4.16,5.72,28.33,120.0-130.0
120.0,0.0,-2.54,1.79,11.04,0.9,-3.56,1.28,28.32,120.0-130.0
120.0,0.0,3.63,3.99,11.38,4.1,-4.27,4.73,28.31,120.0-130.0
120.0,145.0,4.73,4.55,9.51,5.32,-5.64,6.48,28.33,120.0-130.0
120.0,0.0,-3.04,4.29,11.11,6.46,-0.25,6.1,28.35,120.0-130.0
120.0,450.0,-3.09,1.83,10.7,-0.28,-4.51,2.32,28.35,120.0-130.0
120.0,323.0,4.28,4.34,11.31,2.19,-8.2,6.24,28.34,120.0-130.0
120.0,0.0,5.11,4.73,9.23,5.5,-4.13,7.6,28.33,120.0-130.0
120.0,1019.0,-1.52,4.83,10.4,7.79,2.62,6.82,28.34,120.0-130.0
120.0,349.0,-1.39,1.12,12.44,-1.71,-8.34,2.12,28.35,120.0-130.0
120.0,0.0,5.7,4.26,10.93,2.27,-9.93,4.93,28.32,120.0-130.0
120.0,539.0,5.69,5.01,9.39,7.38,0.1,6.27,28.32,120.0-130.0
120.0,1348.0,-4.34,5.07,9.43,9.17,6.64,5.78,28.34,120.0-130.0
120.0,0.0,-1.48,0.16,13.49,-1.96,-6.9,1.04,28.32,120.0-130.0
120.0,250.0,4.38,4.04,11.39,3.28,-6.29,5.34,28.35,120.0-130.0
120.0,730.0,4.93,4.79,8.96,5.9,-2.62,7.55,28.34,120.0-130.0
120.0,0.0,-3.84,5.04,9.49,7.94,4.02,7.13,28.31,120.0-130.0
120.0,0.0,-2.51,0.51,12.18,-1.55,-5.46,1.97,28.31,120.0-130.0
120.0,1434.0,3.76,3.87,11.66,2.19,-7.82,5.45,28.33,120.0-130.0
120.0,0.0,5.46,4.56,9.44,4.22,-7.81,6.82,28.35,120.0-130.0
120.0,0.0,-2.53,4.57,10.35,7.03,1.47,5.92,28.34,120.0-130.0
120.0,1261.0,-3.96,0.88,11.31,-1.49,-4.91,0.6,28.33,120.0-130.0
120.0,0.0,4.97,3.93,11.26,2.04,-8.32,4.5,28.33,120.0-130.0
120.0,0.0,6.62,4.79,9.37,6.24,-3.53,6.68,28.33,120.0-130.0
120.0,1251.0,-2.02,4.71,10.5,8.13,3.3,6.73,28.31,120.0-130.0
120.0,0.0,-1.77,0.29,13.07,-2.43,-9.53,2.29,28.32,120.0-130.0
120.0,0.0,4.86,4.47,10.66,2.71,-8.05,5.78,28.34,120.0-130.0
120.0,0.0,6.88,4.81,9.56,7.53,0.8,7.48,28.33,120.0-130.0
120.0,0.0,-3.61,4.9,9.93,8.39,4.46,6.58,28.33,120.0-130.0
120.0,0.0,-3.28,0.68,12.65,-1.88,-6.92,1.31,28.33,120.0-130.0
120.0,2165.0,1.81,4.69,9.77,3.93,-2.51,4.62,28.31,120.0-130.0
120.0,0.0,5.02,4.82,7.92,6.71,1.41,6.23,28.35,120.0-130.0
120.0,0.0,-3.21,4.53,10.52,7.99,5.21,5.92,28.32,120.0-130.0
120.0,1293.0,-3.74,1.01,11.51,-1.5,-6.43,1.46,28.3,120.0-130.0
120.0,209.0,3.75,4.26,10.64,2.82,-6.28,5.55,28.31,120.0-130.0
120.0,0.0,5.19,4.64,9.0,5.4,-4.04,7.42,28.31,120.0-130.0
120.0,2756.0,-1.49,4.68,10.65,7.78,2.31,7.16,28.32,120.0-130.0
120.0,1776.0,-2.64,1.02,11.74,-1.73,-7.52,2.04,28.34,120.0-130.0
120.0,0.0,6.57,3.92,12.31,1.83,-11.79,5.4,28.32,120.0-130.0
120.0,1917.0,5.87,5.21,9.45,6.51,-3.4,6.77,28.32,120.0-130.0
120.0,2395.0,-2.94,5.44,9.64,8.89,4.77,6.07,28.31,120.0-130.0
120.0,0.0,-0.94,0.31,13.22,-2.13,-7.56,0.9,28.32,120.0-130.0
120.0,2613.0,4.0,4.17,11.3,2.47,-8.51,4.9,28.35,120.0-130.0
120.0,2928.0,5.88,4.89,8.78,6.46,-0.4,6.81,28.34,120.0-130.0
120.0,0.0,-3.37,4.83,9.35,7.88,4.78,6.81,28.32,120.0-130.0
120.0,42.0,-3.51,0.67,11.98,-1.26,-5.0,1.66,28.32,120.0-130.0
120.0,2928.0,3.0,3.98,10.88,2.88,-5.65,5.52,28.34,120.0-130.0
120.0,0.0,6.11,4.45,8.92,5.27,-3.14,7.02,28.33,120.0-130.0
120.0,793.0,-1.7,4.54,10.8,7.53,0.82,6.48,28.34,120.0-130.0
120.0,2928.0,-4.09,0.77,10.92,-1.06,-3.81,0.82,28.34,120.0-130.0
120.0,0.0,3.39,4.36,11.05,2.36,-8.05,4.82,28.33,120.0-130.0
120.0,0.0,6.39,5.07,8.95,6.65,-1.75,6.53,28.31,120.0-130.0
120.0,2927.0,-0.21,4.56,10.81,8.46,3.46,6.52,28.33,120.0-130.0
120.0,0.0,-2.67,0.37,12.57,-3.62,-11.31,1.66,28.34,120.0-130.0
120.0,0.0,3.91,4.33,10.88,1.83,-10.08,5.46,28.33,120.0-130.0
120.0,2362.0,5.29,5.44,8.62,6.75,-0.15,7.2,28.34,120.0-130.0
120.0,0.0,-1.56,5.07,9.78,8.86,7.15,6.61,28.34,120.0-130.0
120.0,0.0,-3.02,0.14,12.91,-3.18,-10.03,1.37,28.35,120.0-130.0
120.0,594.0,1.4,4.37,10.18,2.67,-5.79,4.68,28.32,120.0-130.0
120.0,16.0,5.78,4.78,8.06,7.07,3.09,6.12,28.32,120.0-130.0
120.0,0.0,-2.28,4.7,9.73,8.78,5.85,6.2,28.32,120.0-130.0
120.0,1814.0,-3.89,0.34,11.98,-1.73,-6.48,0.81,28.32,120.0-130.0
120.0,0.0,1.67,4.17,10.97,2.54,-7.36,5.1,28.32,120.0-130.0
120.0,0.0,5.89,4.83,9.06,4.89,-5.76,7.39,28.32,120.0-130.0
120.0,1612.0,-1.9,4.73,10.1,7.33,0.79,6.97,28.34,120.0-130.0
120.0,2099.0,-2.47,0.53,11.77,-2.07,-6.89,1.6,28.33,120.0-130.0
120.0,0.0,3.82,3.77,12.2,1.06,-11.06,5.17,28.34,120.0-130.0
120.0,797.0,6.72,5.15,9.16,6.05,-4.05,6.77,28.31,120.0-130.0
120.0,2243.0,1.03,-3.44,10.06,-6.44,-6.51,-3.07,28.33,120.0-130.0
120.0,0.0,-2.04,0.07,12.88,-2.87,-7.76,0.69,28.34,120.0-130.0
120.0,0.0,3.9,3.91,11.72,1.46,-9.91,4.5,28.32,120.0-130.0
120.0,2405.0,5.47,5.02,9.07,6.66,-1.05,6.76,28.32,120.0-130.0
120.0,0.0,1.49,-3.77,10.76,-6.52,-6.45,-2.72,28.34,120.0-130.0
120.0,0.0,-2.49,0.24,12.75,-1.55,-5.67,1.63,28.31,120.0-130.0
120.0,1822.0,2.72,3.99,11.16,3.2,-4.89,5.6,28.32,120.0-130.0
120.0,0.0,4.6,5.03,8.26,6.34,-1.82,7.48,28.32,120.0-130.0
120.0,1963.0,1.54,-3.6,10.48,-4.81,-2.98,-2.64,28.33,120.0-130.0
120.0,2746.0,-3.76,0.97,11.49,-1.33,-6.58,1.36,28.33,120.0-130.0
120.0,0.0,3.22,4.23,11.37,1.78,-9.51,4.91,28.33,120.0-130.0
120.0,0.0,4.38,5.32,8.16,5.61,-4.05,6.76,28.33,120.0-130.0
120.0,1034.0,0.81,-3.24,10.32,-4.98,-3.47,-2.99,28.33,120.0-130.0
120.0,0.0,-1.5,0.49,13.1,-2.63,-9.54,1.54,28.31,120.0-130.0
120.0,0.0,4.99,4.44,11.56,0.96,-13.21,5.63,28.29,120.0-130.0
120.0,0.0,6.13,5.33,8.83,6.63,-2.63,7.43,28.3,120.0-130.0
120.0,0.0,1.37,-3.52,11.02,-6.29,-6.02,-1.98,28.32,120.0-130.0
120.0,0.0,-1.39,0.36,13.82,-2.05,-8.81,2.23,28.32,120.0-130.0
120.0,351.0,3.89,4.32,11.14,2.41,-9.12,5.91,28.3,120.0-130.0
120.0,0.0,4.38,5.13,8.1,6.66,-0.66,7.05,28.29,120.0-130.0
120.0,0.0,-0.48,-2.76,10.55,-3.59,-0.85,-2.43,28.32,120.0-130.0
120.0,806.0,-2.57,1.37,12.7,0.01,-6.25,1.74,28.31,120.0-130.0
120.0,769.0,5.17,4.21,11.49,3.44,-7.41,5.48,28.32,120.0-130.0
120.0,0.0,3.86,5.06,8.24,5.55,-4.27,6.97,28.33,120.0-130.0
120.0,1767.0,-0.25,-1.92,10.12,-3.55,-2.1,-1.71,28.32,120.0-130.0
120.0,2754.0,-2.26,2.12,11.59,-0.72,-8.54,3.01,28.31,120.0-130.0
120.0,0.0,5.75,4.66,10.77,2.77,-7.76,6.38,28.32,120.0-130.0
120.0,1718.0,5.99,4.81,9.5,6.45,-2.82,7.26,28.29,120.0-130.0
120.0,2928.0,-0.4,-2.2,10.71,-5.61,-7.23,-1.27,28.3,120.0-130.0
120.0,0.0,-0.84,1.7,12.82,-1.3,-9.54,2.62,28.3,120.0-130.0
120.0,966.0,5.34,4.7,10.5,3.52,-8.32,5.39,28.32,120.0-130.0
120.0,2928.0,4.66,5.03,8.43,7.75,1.98,6.62,28.28,120.0-130.0
120.0,0.0,-0.16,-2.97,11.85,-5.19,-6.37,-1.85,28.28,120.0-130.0
120.0,2666.0,-2.12,1.54,12.63,-0.66,-7.9,2.41,28.31,120.0-130.0
120.0,2064.0,3.13,4.77,9.89,4.94,-2.92,6.0,28.32,120.0-130.0
120.0,0.0,3.4,4.95,7.99,7.12,0.86,7.31,28.31,120.0-130.0
120.0,0.0,-0.72,-2.3,10.95,-3.9,-4.85,-1.16,28.32,120.0-130.0
120.0,2371.0,-1.96,2.14,11.95,0.07,-6.25,2.84,28.29,120.0-130.0
120.0,0.0,4.61,4.8,10.84,2.97,-8.42,6.12,28.32,120.0-130.0
120.0,157.0,3.78,4.81,8.71,6.02,-2.79,6.85,28.3,120.0-130.0
120.0,688.0,-1.06,-2.05,10.51,-4.19,-5.12,-1.6,28.32,120.0-130.0
120.0,128.0,-1.59,1.9,12.25,-1.1,-8.4,2.43,28.31,120.0-130.0
120.0,0.0,6.67,4.71,10.55,3.23,-8.63,5.62,28.33,120.0-130.0
120.0,1264.0,4.42,5.01,9.07,7.69,0.5,6.96,28.31,120.0-130.0
120.0,288.0,-0.24,-2.4,11.78,-4.96,-7.48,-0.92,28.32,120.0-130.0
120.0,0.0,-0.05,1.97,13.38,-0.89,-11.42,3.57,28.3,120.0-130.0
120.0,2928.0,5.68,4.79,10.21,3.84,-7.13,6.61,28.32,120.0-130.0
120.0,1211.0,2.39,5.12,7.99,8.04,3.23,7.17,28.32,120.0-130.0
120.0,0.0,-1.14,-2.12,12.37,-3.9,-4.85,-1.05,28.32,120.0-130.0
120.0,2240.0,-2.66,2.41,12.1,0.44,-6.98,3.01,28.29,120.0-130.0
120.0,1451.0,4.87,4.74,9.67,4.18,-4.36,5.8,28.3,120.0-130.0
120.0,0.0,1.97,5.07,8.39,6.86,-0.19,6.74,28.31,120.0-130.0
120.0,1447.0,-1.77,-1.39,10.92,-3.5,-5.7,-1.11,28.29,120.0-130.0
120.0,2310.0,-1.09,2.58,11.98,-0.51,-9.93,3.42,28.32,120.0-130.0
120.0,0.0,6.78,4.5,10.72,2.33,-10.6,6.71,28.29,120.0-130.0
120.0,85.0,3.44,4.83,9.18,7.15,-0.77,7.34,28.32,120.0-130.0
120.0,1049.0,-2.0,-1.56,11.05,-4.22,-6.04,-0.31,28.32,120.0-130.0
120.0,0.0,0.9,2.61,13.0,-0.01,-9.56,3.86,28.32,120.0-130.0
120.0,146.0,7.26,4.87,10.34,4.04,-9.27,6.47,28.31,120.0-130.0
120.0,2512.0,2.43,5.08,8.59,8.39,3.21,6.67,28.32,120.0-130.0
120.0,0.0,-0.61,-1.84,12.35,-3.62,-4.66,-0.96,28.31,120.0-130.0
120.0,0.0,-0.07,2.67,13.06,0.71,-8.63,3.22,28.3,120.0-130.0
120.0,1354.0,5.09,4.48,10.37,4.95,-4.36,6.21,28.3,120.0-130.0
120.0,0.0,1.31,4.61,8.79,6.4,-1.21,7.11,28.32,120.0-130.0
120.0,0.0,-2.94,-1.0,10.4,-2.0,-0.97,-0.46,28.3,120.0-130.0
120.0,1184.0,-1.89,3.0,11.21,1.03,-5.99,4.0,28.32,120.0-130.0
120.0,0.0,6.22,4.65,10.2,3.63,-6.97,6.81,28.32,120.0-130.0
120.0,0.0,2.15,4.83,9.12,6.95,-1.08,6.9,28.29,120.0-130.0
120.0,2160.0,-2.23,-1.15,10.88,-3.64,-6.77,-0.32,28.3,120.0-130.0
120.0,0.0,0.21,2.93,12.27,0.25,-9.15,3.62,28.31,120.0-130.0
120.0,0.0,6.91,5.12,9.68,4.54,-7.62,6.12,28.33,120.0-130.0
120.0,1741.0,1.99,5.13,8.49,8.59,3.91,6.71,28.3,120.0-130.0
120.0,0.0,-1.43,-1.69,12.64,-4.22,-7.77,-0.32,28.31,120.0-130.0
120.0,0.0,2.33,2.7,13.08,-0.04,-11.13,3.95,28.29,120.0-130.0
120.0,1059.0,6.93,4.51,10.44,4.94,-4.65,6.79,28.29,120.0-130.0
120.0,647.0,0.03,5.17,8.17,8.01,3.68,7.08,28.31,120.0-130.0
120.0,0.0,-2.4,-1.37,11.98,-2.58,-2.17,-0.29,28.32,120.0-130.0
120.0,592.0,-1.42,3.27,11.34,2.18,-3.09,3.81,28.3,120.0-130.0
120.0,1419.0,6.05,4.77,9.6,4.56,-5.27,6.61,28.32,120.0-130.0
120.0,0.0,0.4,4.68,9.01,6.48,-1.49,6.73,28.3,120.0-130.0
120.0,1714.0,-3.0,-0.29,10.32,-1.81,-2.42,-0.23,28.31,120.0-130.0
120.0,0.0,0.53,3.09,12.07,0.91,-6.81,3.88,28.29,120.0-130.0
120.0,0.0,8.0,4.57,10.36,4.3,-6.77,6.52,28.32,120.0-130.0
120.0,2367.0,2.47,4.32,10.76,7.35,-1.26,7.02,28.32,120.0-130.0
120.0,1470.0,-3.0,-0.37,11.05,-2.92,-6.08,0.43,28.3,120.0-130.0
120.0,0.0,2.27,3.65,12.02,1.4,-7.64,4.52,28.31,120.0-130.0
120.0,1162.0,5.96,5.38,8.87,6.57,-1.03,6.73,28.3,120.0-130.0
120.0,2387.0,0.44,5.05,8.9,8.69,4.81,6.81,28.28,120.0-130.0
120.0,0.0,-1.66,-0.95,12.99,-3.15,-7.07,0.41,28.28,120.0-130.0
120.0,2022.0,0.34,3.85,11.67,2.01,-6.68,4.33,28.31,120.0-130.0
120.0,2736.0,5.79,5.03,9.14,6.25,-1.12,6.58,28.31,120.0-130.0
120.0,0.0,-1.47,4.97,8.27,8.17,4.31,6.61,28.31,120.0-130.0
120.0,803.0,-2.82,-0.67,11.87,-1.97,-4.19,0.09,28.28,120.0-130.0
120.0,2906.0,0.19,3.45,12.13,1.61,-8.05,4.44,28.3,120.0-130.0
120.0,0.0,6.27,4.53,9.65,3.53,-8.31,7.0,28.3,120.0-130.0
120.0,180.0,-0.31,4.85,9.05,6.88,-0.44,6.93,28.31,120.0-130.0
120.0,2928.0,-1.98,-0.36,10.83,-2.02,-3.69,0.31,28.29,120.0-130.0
120.0,0.0,3.09,2.75,13.58,0.33,-11.06,4.35,28.31,120.0-130.0
120.0,0.0,7.13,4.81,10.7,3.81,-11.01,6.74,28.31,120.0-130.0
120.0,2927.0,1.2,5.41,8.84,8.13,1.26,6.9,28.29,120.0-130.0
120.0,0.0,-1.17,-1.48,12.45,-4.17,-7.01,-0.34,28.28,120.0-130.0
120.0,0.0,1.58,3.06,12.58,0.41,-9.5,3.68,28.29,120.0-130.0
120.0,2516.0,6.57,5.13,9.99,5.44,-4.28,6.48,28.31,120.0-130.0
120.0,0.0,0.35,5.11,8.36,7.4,1.99,6.9,28.3,120.0-130.0
120.0,0.0,-2.08,-1.54,12.11,-2.93,-2.37,-0.52,28.28,120.0-130.0
120.0,2928.0,-0.03,2.34,13.05,0.51,-8.34,3.75,28.29,120.0-130.0
120.0,1040.0,4.75,4.64,9.7,4.77,-4.01,6.38,28.29,120.0-130.0
120.0,0.0,1.39,4.55,8.65,6.8,-0.04,6.85,28.32,120.0-130.0
120.0,2928.0,-2.03,-1.18,10.63,-2.11,-1.49,-0.81,28.31,120.0-130.0
120.0,920.0,-0.45,2.51,12.86,0.96,-7.39,3.43,28.29,120.0-130.0
120.0,0.0,6.62,4.53,10.7,2.8,-11.53,6.42,28.32,120.0-130.0
120.0,1978.0,2.8,4.76,9.64,7.11,-0.74,6.82,28.3,120.0-130.0
120.0,2862.0,-3.02,-1.08,10.4,-3.26,-4.43,-0.7,28.31,120.0-130.0
120.0,0.0,0.98,2.69,13.24,0.07,-9.09,3.69,28.31,120.0-130.0
120.0,2112.0,8.81,4.81,10.73,4.04,-9.09,6.52,28.31,120.0-130.0
120.0,1502.0,1.88,5.0,8.8,7.64,1.56,7.13,28.3,120.0-130.0
120.0,0.0,-1.56,-1.64,12.21,-3.7,-4.72,-0.35,28.28,120.0-130.0
120.0,1969.0,-0.54,2.84,12.38,1.08,-6.58,3.63,28.29,120.0-130.0
120.0,2155.0,6.63,4.59,10.32,5.46,-2.86,6.53,28.28,120.0-130.0
120.0,0.0,0.14,4.9,8.28,6.77,-0.5,7.0,28.3,120.0-130.0
120.0,1092.0,-2.6,-0.87,11.22,-1.36,0.08,-0.58,28.28,120.0-130.0
120.0,2201.0,-0.17,2.97,12.04,1.76,-4.95,3.89,28.27,120.0-130.0
120.0,0.0,7.33,4.32,10.77,3.38,-9.0,6.87,28.29,120.0-130.0
120.0,837.0,0.42,4.89,9.15,6.77,-1.88,7.1,28.3,120.0-130.0
120.0,1666.0,-1.67,-0.94,11.34,-2.43,-3.61,-0.14,28.3,120.0-130.0
120.0,0.0,3.04,2.6,14.36,-0.81,-14.53,4.56,28.27,120.0-130.0
120.0,179.0,6.14,5.15,9.79,3.72,-10.64,6.91,28.28,120.0-130.0
120.0,2928.0,0.79,5.21,8.63,7.64,2.05,6.79,28.28,120.0-130.0
120.0,0.0,-1.96,-1.19,12.65,-3.5,-5.52,-0.18,28.28,120.0-130.0
120.0,78.0,2.77,3.15,13.05,0.79,-10.22,3.95,28.26,120.0-130.0
120.0,2190.0,7.0,4.89,10.39,4.44,-7.5,6.76,28.28,120.0-130.0
120.0,0.0,-1.01,5.28,8.17,7.87,3.06,6.85,28.29,120.0-130.0
120.0,0.0,-1.11,-1.35,12.97,-2.69,-4.89,0.06,28.28,120.0-130.0
120.0,1993.0,-0.03,2.85,12.92,0.45,-10.03,4.39,28.31,120.0-130.0
120.0,0.0,4.89,4.84,9.24,4.53,-4.75,7.03,28.3,120.0-130.0
120.0,0.0,-0.76,5.06,8.63,7.06,0.97,7.13,28.28,120.0-130.0
120.0,955.0,-2.59,-0.91,11.47,-2.23,-3.24,-0.21,28.28,120.0-130.0
120.0,0.0,1.01,2.8,12.77,0.54,-9.64,3.85,28.3,120.0-130.0
120.0,0.0,6.8,4.51,10.69,2.57,-12.55,6.56,28.31,120.0-130.0
