Speed,Voice,Acceleration X,Acceleration Y,Acceleration Z,Gyro X,Gyro Y,Gyro Z,Temperature,Speed_Range
120.0,2400.0,0.23,-3.02,11.45,1.17,-9.44,-4.97,27.73,120.0-130.0
120.0,2927.0,-0.11,-3.27,11.46,0.68,-9.19,-5.43,27.75,120.0-130.0
120.0,1019.0,-0.01,-3.6,11.69,0.24,-10.02,-5.84,27.73,120.0-130.0
120.0,570.0,-2.37,6.56,8.59,9.49,-1.67,11.69,27.72,120.0-130.0
120.0,0.0,-2.81,6.23,9.16,9.2,-1.24,11.58,27.73,120.0-130.0
120.0,1258.0,-3.27,6.61,10.07,9.62,-1.98,11.95,27.74,120.0-130.0
120.0,1365.0,-3.71,6.61,10.19,10.37,-1.64,11.22,27.74,120.0-130.0
120.0,2928.0,-2.34,-0.19,9.39,-6.98,11.02,-0.34,27.72,120.0-130.0
120.0,2927.0,-1.18,1.3,9.37,-5.47,9.86,1.68,27.71,120.0-130.0
120.0,2928.0,-0.26,2.73,8.96,-3.55,9.73,3.83,27.75,120.0-130.0
120.0,1873.0,0.96,4.1,8.33,-1.24,10.54,6.5,27.73,120.0-130.0
120.0,2479.0,2.78,-7.56,10.84,-10.82,-7.12,-11.83,27.72,120.0-130.0
120.0,199.0,1.31,-7.03,10.23,-12.4,-5.24,-9.95,27.73,120.0-130.0
120.0,0.0,-2.18,-5.43,11.47,-12.26,-0.56,-6.91,27.72,120.0-130.0
120.0,0.0,-4.42,-3.08,12.62,-11.1,4.08,-2.99,27.73,120.0-130.0
120.0,34.0,-0.02,-6.26,13.05,0.12,-14.89,-8.77,27.72,120.0-130.0
120.0,718.0,1.84,-8.04,14.37,-5.5,-18.07,-11.12,27.73,120.0-130.0
120.0,1040.0,3.49,-8.82,13.12,-9.83,-18.38,-12.51,27.74,120.0-130.0
120.0,2928.0,2.65,-8.51,11.38,-12.98,-15.33,-11.98,27.73,120.0-130.0
120.0,2927.0,-0.21,0.38,7.35,11.84,-1.59,-3.49,27.74,120.0-130.0
120.0,2928.0,-0.66,-3.66,11.16,6.69,-10.29,-8.21,27.74,120.0-130.0
120.0,2927.0,0.65,-7.15,14.42,-0.97,-21.2,-11.72,27.73,120.0-130.0
120.0,2927.0,2.42,-9.05,14.56,-7.44,-24.22,-13.57,27.72,120.0-130.0
120.0,2928.0,2.6,6.23,1.64,15.1,8.4,5.8,27.74,120.0-130.0
120.0,2926.0,1.39,2.5,4.45,13.7,3.09,0.6,27.72,120.0-130.0
120.0,2605.0,-0.53,-1.97,9.77,9.23,-7.62,-5.02,27.73,120.0-130.0
120.0,2735.0,0.13,-6.32,13.67,1.64,-20.39,-10.15,27.72,120.0-130.0
120.0,2928.0,-3.64,9.69,5.49,13.41,16.53,12.36,27.71,120.0-130.0
120.0,1783.0,2.32,7.24,1.0,15.68,12.06,7.1,27.74,120.0-130.0
120.0,105.0,2.01,3.3,2.92,14.6,5.2,0.49,27.72,120.0-130.0
120.0,1489.0,-1.04,-1.28,8.85,9.9,-6.68,-5.68,27.72,120.0-130.0
120.0,2927.0,-5.86,9.7,7.72,8.28,18.49,14.83,27.7,120.0-130.0
120.0,2256.0,-3.77,10.16,5.46,12.92,17.78,12.79,27.72,120.0-130.0
120.0,2928.0,1.58,8.0,0.83,15.82,13.47,8.7,27.73,120.0-130.0
120.0,1607.0,1.92,3.9,2.15,14.95,6.57,2.43,27.72,120.0-130.0
120.0,1935.0,-1.92,7.68,7.42,2.44,18.88,15.26,27.73,120.0-130.0
120.0,1641.0,-6.07,9.97,8.2,8.17,17.19,16.28,27.72,120.0-130.0
120.0,604.0,-4.02,10.32,5.52,13.68,20.1,13.12,27.72,120.0-130.0
120.0,686.0,2.59,7.8,0.29,15.93,14.2,7.77,27.73,120.0-130.0
120.0,0.0,2.8,4.82,7.75,-2.93,16.52,10.24,27.7,120.0-130.0
120.0,0.0,-1.52,7.88,6.81,2.21,17.75,14.28,27.72,120.0-130.0
120.0,0.0,-6.61,10.0,8.24,9.13,19.49,15.7,27.73,120.0-130.0
120.0,0.0,-4.06,10.4,5.23,13.09,17.91,13.53,27.71,120.0-130.0
120.0,0.0,2.69,1.13,10.8,-7.92,10.84,5.31,27.72,120.0-130.0
120.0,0.0,2.38,5.01,7.51,-2.66,16.29,11.76,27.72,120.0-130.0
120.0,0.0,-2.78,8.05,6.51,3.6,22.04,15.21,27.73,120.0-130.0
120.0,1307.0,-6.3,10.15,7.91,8.95,20.52,15.85,27.73,120.0-130.0
120.0,1535.0,-2.17,-2.47,14.99,-12.58,1.26,-1.46,27.73,120.0-130.0
120.0,2683.0,1.77,1.83,10.14,-6.51,12.82,5.16,27.71,120.0-130.0
120.0,1957.0,2.87,5.02,7.41,-1.32,19.36,10.74,27.72,120.0-130.0
120.0,2686.0,-2.85,8.08,7.64,3.53,19.4,14.6,27.71,120.0-130.0
120.0,2266.0,-5.73,-6.24,16.93,-14.7,-8.32,-7.45,27.72,120.0-130.0
120.0,2928.0,-2.0,-2.19,14.02,-11.92,4.25,-0.67,27.74,120.0-130.0
120.0,2926.0,4.11,1.96,9.41,-6.44,12.31,6.76,27.72,120.0-130.0
120.0,2928.0,1.42,5.66,7.74,-1.04,18.2,12.86,27.74,120.0-130.0
120.0,2927.0,-1.42,-9.06,15.03,-15.52,-20.16,-11.34,27.73,120.0-130.0
120.0,2928.0,-5.87,-5.47,17.89,-14.41,-6.36,-6.42,27.72,120.0-130.0
120.0,2927.0,-0.14,-1.36,13.73,-10.4,3.99,0.7,27.7,120.0-130.0
120.0,2926.0,3.14,2.79,8.94,-5.94,11.7,7.2,27.7,120.0-130.0
120.0,2927.0,4.6,-10.11,12.08,-12.85,-25.29,-15.08,27.73,120.0-130.0
120.0,2927.0,-3.33,-8.49,16.01,-15.28,-17.02,-11.57,27.73,120.0-130.0
120.0,2926.0,-4.73,-4.9,17.42,-13.75,-3.81,-5.33,27.72,120.0-130.0
120.0,1825.0,0.5,-0.47,12.86,-9.44,7.19,2.46,27.72,120.0-130.0
120.0,314.0,4.4,-9.94,14.03,-10.27,-30.53,-14.66,27.74,120.0-130.0
120.0,0.0,2.99,-9.85,11.96,-13.27,-23.02,-13.31,27.73,120.0-130.0
120.0,1698.0,-3.58,-7.72,17.51,-15.6,-16.62,-9.23,27.72,120.0-130.0
120.0,972.0,-4.19,-3.83,16.14,-12.76,-1.93,-3.13,27.72,120.0-130.0
120.0,931.0,2.07,-7.9,14.86,-3.7,-28.13,-13.85,27.74,120.0-130.0
120.0,1748.0,5.22,-9.97,12.63,-10.92,-27.44,-15.43,27.73,120.0-130.0
120.0,966.0,0.71,-9.35,12.99,-14.29,-21.58,-13.6,27.74,120.0-130.0
120.0,0.0,-5.82,-6.71,16.91,-14.52,-9.18,-8.76,27.75,120.0-130.0
120.0,0.0,-0.69,-5.94,13.45,1.67,-19.97,-10.94,27.74,120.0-130.0
120.0,145.0,3.44,-8.63,14.77,-5.62,-27.08,-14.19,27.76,120.0-130.0
120.0,629.0,3.86,-10.13,12.73,-12.2,-28.95,-14.3,27.73,120.0-130.0
120.0,0.0,-0.74,-9.03,13.74,-15.2,-19.54,-11.63,27.72,120.0-130.0
120.0,2256.0,-1.03,-2.54,10.19,8.43,-6.0,-6.21,27.72,120.0-130.0
120.0,1749.0,0.12,-6.99,14.55,-0.69,-23.87,-11.63,27.72,120.0-130.0
120.0,2543.0,3.11,-9.12,13.99,-7.79,-30.22,-14.59,27.72,120.0-130.0
120.0,1342.0,3.04,-9.81,12.61,-13.45,-26.73,-14.91,27.73,120.0-130.0
120.0,2030.0,1.7,1.2,4.08,13.35,6.25,-2.41,27.74,120.0-130.0
120.0,2599.0,-2.0,-3.9,12.04,5.79,-10.92,-8.94,27.72,120.0-130.0
120.0,2257.0,1.41,-7.59,15.43,-3.22,-27.28,-12.91,27.73,120.0-130.0
120.0,2928.0,4.0,-9.54,12.68,-9.85,-29.26,-14.53,27.72,120.0-130.0
120.0,1274.0,3.66,4.63,0.27,14.81,10.95,3.3,27.71,120.0-130.0
120.0,2413.0,-0.02,-0.53,7.27,10.57,-0.01,-3.59,27.74,120.0-130.0
120.0,2359.0,-2.55,-5.14,13.38,2.77,-17.16,-9.8,27.69,120.0-130.0
120.0,2927.0,1.62,-8.31,14.61,-5.3,-27.38,-13.87,27.7,120.0-130.0
120.0,2162.0,3.33,7.51,-1.36,15.97,16.62,7.58,27.74,120.0-130.0
120.0,2415.0,2.43,2.84,2.03,14.31,9.04,0.34,27.72,120.0-130.0
120.0,1833.0,-1.35,-2.42,10.18,7.65,-6.42,-6.79,27.73,120.0-130.0
120.0,2.0,-0.63,-6.49,14.45,-0.25,-23.43,-12.04,27.75,120.0-130.0
120.0,975.0,-0.82,9.38,2.84,13.53,17.95,11.41,27.72,120.0-130.0
120.0,322.0,3.95,5.89,-1.39,15.54,14.53,5.42,27.72,120.0-130.0
120.0,1647.0,0.54,0.95,5.58,12.06,3.29,-1.56,27.72,120.0-130.0
120.0,1459.0,-1.82,-4.14,11.93,4.37,-15.13,-7.86,27.72,120.0-130.0
120.0,2927.0,-5.48,10.39,6.81,12.19,22.38,14.68,27.72,120.0-130.0
120.0,2928.0,2.51,8.25,0.74,15.39,19.32,9.38,27.72,120.0-130.0
120.0,2928.0,3.77,4.27,0.44,14.48,8.7,2.73,27.72,120.0-130.0
120.0,1685.0,-1.17,-0.89,7.86,9.65,-2.36,-4.75,27.72,120.0-130.0
120.0,1835.0,-6.72,9.8,7.82,8.39,20.91,15.21,27.72,120.0-130.0
120.0,1680.0,-2.82,9.96,5.07,13.64,19.86,12.82,27.72,120.0-130.0
120.0,1329.0,3.25,7.05,-0.45,15.45,15.33,7.29,27.72,120.0-130.0
120.0,1996.0,2.53,2.59,2.5,13.56,7.71,0.37,27.73,120.0-130.0
120.0,1535.0,-3.19,8.26,7.8,3.69,17.65,15.52,27.74,120.0-130.0
120.0,717.0,-6.62,10.03,7.1,9.99,20.91,15.27,27.73,120.0-130.0
120.0,561.0,-0.68,9.34,3.46,14.92,20.53,11.52,27.73,120.0-130.0
120.0,844.0,5.39,5.62,0.61,14.14,9.39,5.28,27.72,120.0-130.0
120.0,0.0,-0.2,6.65,6.51,0.96,20.74,12.83,27.73,120.0-130.0
120.0,0.0,-5.57,8.91,6.65,6.82,23.77,14.92,27.73,120.0-130.0
120.0,0.0,-5.34,9.88,7.36,11.76,22.3,13.84,27.71,120.0-130.0
120.0,0.0,1.8,8.23,2.26,14.87,14.17,9.9,27.7,120.0-130.0
120.0,0.0,2.79,4.15,7.85,-3.97,15.53,8.91,27.7,120.0-130.0
120.0,0.0,-0.63,7.42,6.94,1.86,17.71,14.22,27.7,120.0-130.0
120.0,0.0,-5.79,9.57,7.29,8.8,21.89,15.76,27.71,120.0-130.0
120.0,0.0,-4.34,9.86,5.65,12.95,21.28,13.5,27.71,120.0-130.0
120.0,493.0,1.28,0.74,12.19,-8.98,4.4,4.9,27.73,120.0-130.0
120.0,0.0,1.56,5.24,7.45,-2.48,16.03,10.64,27.72,120.0-130.0
120.0,1473.0,-2.28,8.31,6.13,4.48,21.48,14.62,27.71,120.0-130.0
120.0,2227.0,-4.39,-6.62,17.18,-14.71,-10.69,-7.68,27.7,120.0-130.0
120.0,1229.0,-3.16,-2.34,15.91,-12.0,-0.53,-0.78,27.74,120.0-130.0
120.0,2928.0,2.24,2.12,10.76,-7.28,7.62,6.3,27.7,120.0-130.0
120.0,2659.0,1.37,5.83,6.86,-1.24,17.55,11.81,27.74,120.0-130.0
120.0,2896.0,-0.31,-8.93,14.65,-14.01,-17.91,-11.41,27.73,120.0-130.0
120.0,2927.0,-4.64,-5.74,17.95,-14.24,-8.14,-5.77,27.72,120.0-130.0
120.0,2928.0,-1.6,-1.19,14.79,-11.07,-0.63,1.75,27.72,120.0-130.0
120.0,2928.0,2.29,3.27,9.22,-5.79,9.62,8.42,27.74,120.0-130.0
120.0,2928.0,3.91,-9.38,12.11,-11.16,-21.83,-13.87,27.75,120.0-130.0
120.0,2927.0,-0.72,-8.33,15.4,-13.83,-14.23,-10.3,27.7,120.0-130.0
120.0,2672.0,-5.02,-4.44,18.56,-14.24,-5.59,-4.32,27.7,120.0-130.0
120.0,2926.0,0.05,0.07,13.93,-9.62,2.57,2.96,27.72,120.0-130.0
120.0,2928.0,4.32,-9.03,11.94,-8.32,-23.32,-15.15,27.74,120.0-130.0
120.0,2301.0,3.16,-9.52,12.21,-12.84,-21.39,-13.37,27.74,120.0-130.0
120.0,2099.0,-2.85,-7.3,16.66,-14.71,-13.89,-8.44,27.74,120.0-130.0
120.0,1578.0,-3.33,-3.27,17.97,-12.94,-4.17,-1.48,27.71,120.0-130.0
120.0,910.0,0.28,-7.9,13.64,-4.32,-23.19,-13.66,27.71,120.0-130.0
120.0,1531.0,4.83,-9.41,11.7,-9.68,-22.29,-14.6,27.74,120.0-130.0
120.0,0.0,1.39,-9.28,13.94,-14.32,-21.14,-12.34,27.72,120.0-130.0
120.0,720.0,-4.12,-6.14,17.61,-13.57,-9.68,-6.91,27.72,120.0-130.0
120.0,1863.0,-2.2,-6.22,13.06,0.12,-18.84,-12.19,27.72,120.0-130.0
120.0,1319.0,3.39,-8.4,13.32,-6.26,-23.78,-14.97,27.72,120.0-130.0
120.0,363.0,4.45,-9.43,12.02,-11.28,-24.54,-14.39,27.72,120.0-130.0
120.0,0.0,-0.43,-8.6,15.27,-14.29,-17.46,-10.64,27.7,120.0-130.0
120.0,0.0,-3.58,-3.41,10.88,5.06,-10.28,-8.19,27.7,120.0-130.0
120.0,0.0,-0.37,-7.08,13.81,-2.05,-21.28,-12.44,27.71,120.0-130.0
120.0,468.0,4.34,-8.95,12.99,-8.66,-25.15,-14.6,27.7,120.0-130.0
120.0,1653.0,3.19,-9.45,12.25,-13.02,-22.9,-13.2,27.72,120.0-130.0
120.0,1421.0,-0.45,-0.47,6.48,9.64,-0.13,-4.01,27.74,120.0-130.0
120.0,1282.0,-2.34,-4.86,11.99,2.71,-14.29,-10.21,27.71,120.0-130.0
120.0,1427.0,1.01,-8.01,14.11,-4.09,-22.16,-14.43,27.73,120.0-130.0
120.0,2927.0,5.6,-9.39,12.28,-9.68,-23.19,-15.17,27.72,120.0-130.0
120.0,2783.0,1.8,2.27,2.59,12.13,5.74,-0.18,27.72,120.0-130.0
120.0,2926.0,-1.41,-2.33,9.1,7.07,-6.89,-6.65,27.72,120.0-130.0
120.0,2928.0,-1.88,-6.31,13.11,-0.49,-18.67,-12.02,27.7,120.0-130.0
120.0,1825.0,3.76,-8.43,13.47,-6.87,-25.11,-14.14,27.73,120.0-130.0
120.0,2007.0,4.47,5.13,0.36,14.02,12.26,4.62,27.71,120.0-130.0
120.0,735.0,0.68,0.44,5.47,9.5,-0.51,-2.4,27.73,120.0-130.0
120.0,2892.0,-3.22,-3.93,11.83,3.69,-13.28,-8.94,27.73,120.0-130.0
120.0,2928.0,0.15,-7.52,13.71,-3.26,-22.74,-13.21,27.73,120.0-130.0
120.0,2928.0,3.15,7.0,1.55,13.96,14.79,8.1,27.74,120.0-130.0
120.0,2927.0,3.0,3.08,2.34,12.29,5.87,1.22,27.75,120.0-130.0
120.0,2927.0,-2.34,-1.67,8.53,7.21,-3.99,-6.23,27.72,120.0-130.0
120.0,2925.0,-1.14,-5.37,12.75,1.03,-17.75,-10.85,27.72,120.0-130.0
120.0,2927.0,-1.82,8.74,5.45,14.34,22.0,11.44,27.72,120.0-130.0
120.0,2609.0,4.48,5.6,0.89,14.16,10.99,5.98,27.71,120.0-130.0
120.0,1744.0,-0.12,1.45,4.97,9.61,-0.47,-1.48,27.71,120.0-130.0
120.0,115.0,-2.06,-3.47,10.55,5.0,-9.59,-8.06,27.68,120.0-130.0
120.0,1413.0,-4.92,9.06,7.52,10.94,20.87,13.84,27.72,120.0-130.0
120.0,1941.0,1.08,7.49,2.02,13.85,16.27,9.09,27.72,120.0-130.0
120.0,2630.0,3.24,3.62,1.81,12.64,8.31,2.06,27.71,120.0-130.0
120.0,2423.0,-0.18,-1.11,7.7,6.77,-6.6,-5.02,27.71,120.0-130.0
120.0,2927.0,-5.6,9.11,7.46,9.52,24.62,14.88,27.72,120.0-130.0
120.0,2928.0,-2.69,8.52,6.53,12.72,18.76,12.1,27.71,120.0-130.0
120.0,2928.0,2.34,5.87,1.9,12.46,9.82,6.21,27.71,120.0-130.0
120.0,2850.0,1.69,1.76,3.56,11.32,4.11,-0.72,27.72,120.0-130.0
120.0,2110.0,-3.99,8.53,6.38,5.85,22.21,15.11,27.72,120.0-130.0
120.0,1962.0,-3.65,8.96,7.9,10.37,18.99,14.76,27.72,120.0-130.0
120.0,2495.0,0.11,7.79,3.21,13.71,16.4,10.09,27.72,120.0-130.0
120.0,2175.0,4.52,4.22,1.91,12.16,6.06,3.37,27.7,120.0-130.0
120.0,2923.0,-0.06,7.58,4.74,3.34,22.93,13.57,27.7,120.0-130.0
120.0,2579.0,-4.94,8.78,7.37,8.57,22.58,14.95,27.71,120.0-130.0
120.0,2926.0,-3.53,8.67,7.55,11.7,17.39,12.45,27.7,120.0-130.0
120.0,2928.0,2.1,6.28,2.14,13.22,12.93,7.0,27.72,120.0-130.0
120.0,2022.0,1.93,6.23,6.55,-0.74,15.48,11.52,27.72,120.0-130.0
120.0,661.0,-2.68,8.24,5.36,5.81,23.96,14.83,27.71,120.0-130.0
120.0,272.0,-4.01,8.78,7.49,10.22,22.94,14.4,27.72,120.0-130.0
120.0,0.0,0.51,7.94,4.9,13.47,14.37,11.09,27.74,120.0-130.0
120.0,0.0,0.47,4.38,8.7,-3.99,13.97,8.54,27.72,120.0-130.0
120.0,0.0,0.68,7.75,5.35,3.17,20.77,13.58,27.71,120.0-130.0
120.0,0.0,-4.35,8.69,6.8,8.56,23.96,15.27,27.72,120.0-130.0
120.0,0.0,-2.16,8.18,8.41,10.22,14.32,13.09,27.73,120.0-130.0
120.0,0.0,-1.14,1.53,11.18,-7.33,7.67,4.71,27.72,120.0-130.0
120.0,0.0,1.96,5.94,6.84,-1.53,16.17,10.73,27.73,120.0-130.0
120.0,0.0,-1.2,7.84,5.53,5.2,24.16,14.53,27.71,120.0-130.0
120.0,0.0,-5.16,9.1,8.51,10.4,22.21,14.97,27.73,120.0-130.0
120.0,102.0,-3.58,-1.56,15.52,-11.19,-2.54,0.95,27.72,120.0-130.0
120.0,566.0,0.98,3.98,8.87,-4.77,10.25,7.9,27.72,120.0-130.0
120.0,1240.0,0.67,7.21,5.81,2.15,21.2,12.86,27.73,120.0-130.0
120.0,1204.0,-4.17,8.71,6.32,8.1,24.54,15.03,27.73,120.0-130.0
120.0,1082.0,-4.44,-4.33,18.33,-13.97,-12.32,-3.37,27.72,120.0-130.0
120.0,1461.0,-2.15,1.06,11.58,-8.12,5.04,3.89,27.73,120.0-130.0
120.0,2442.0,2.24,5.81,6.5,-2.14,15.69,10.35,27.73,120.0-130.0
120.0,1680.0,-1.04,8.17,5.75,4.76,24.53,14.47,27.73,120.0-130.0
120.0,2042.0,-4.82,-6.94,19.13,-15.22,-17.13,-6.87,27.72,120.0-130.0
120.0,2928.0,-4.0,-2.5,16.73,-12.98,-5.49,-0.23,27.72,120.0-130.0
120.0,1470.0,0.09,2.93,10.51,-6.03,9.77,6.85,27.73,120.0-130.0
120.0,2096.0,1.03,7.13,5.63,0.77,18.18,12.56,27.72,120.0-130.0
120.0,2925.0,0.74,-8.57,15.87,-13.59,-19.11,-11.09,27.73,120.0-130.0
120.0,2927.0,-5.18,-5.4,19.52,-14.62,-14.29,-4.5,27.7,120.0-130.0
120.0,2927.0,-2.88,0.12,13.41,-9.51,2.25,2.81,27.7,120.0-130.0
120.0,2927.0,1.62,5.05,7.26,-2.52,15.97,9.48,27.71,120.0-130.0
120.0,2926.0,3.98,-9.74,13.04,-12.17,-22.76,-13.06,27.72,120.0-130.0
120.0,2927.0,-2.47,-7.67,18.75,-15.16,-19.92,-7.9,27.71,120.0-130.0
120.0,1680.0,-4.75,-3.1,17.04,-13.17,-9.42,-0.76,27.72,120.0-130.0
120.0,2407.0,0.26,2.11,10.96,-8.32,5.26,6.44,27.71,120.0-130.0
120.0,2928.0,6.21,-9.07,11.56,-8.08,-19.68,-14.8,27.72,120.0-130.0
120.0,2592.0,2.16,-9.35,15.22,-13.51,-22.07,-11.18,27.7,120.0-130.0
120.0,1265.0,-5.81,-5.71,18.46,-15.17,-14.44,-5.69,27.72,120.0-130.0
120.0,0.0,-3.42,-0.92,14.55,-10.49,-1.63,1.71,27.72,120.0-130.0
120.0,192.0,6.44,-8.58,10.87,-4.83,-20.03,-15.43,27.72,120.0-130.0
120.0,389.0,5.2,-9.51,13.62,-12.17,-24.21,-14.07,27.71,120.0-130.0
120.0,0.0,-2.64,-8.24,18.03,-14.93,-19.78,-8.93,27.72,120.0-130.0
120.0,1742.0,-6.72,-3.78,18.71,-14.36,-9.97,-2.32,27.73,120.0-130.0
120.0,32.0,1.63,-7.4,12.85,-1.68,-16.55,-14.18,27.71,120.0-130.0
120.0,672.0,6.28,-9.26,10.9,-7.48,-21.03,-14.88,27.7,120.0-130.0
120.0,0.0,2.74,-9.01,14.97,-12.88,-21.87,-12.5,27.71,120.0-130.0
120.0,617.0,-5.19,-6.47,19.6,-15.17,-17.98,-6.2,27.73,120.0-130.0
120.0,1424.0,-1.9,-5.47,11.49,1.86,-10.51,-12.7,27.72,120.0-130.0
120.0,302.0,5.17,-8.12,12.6,-3.27,-17.2,-15.05,27.7,120.0-130.0
120.0,0.0,6.31,-9.98,12.12,-11.01,-24.07,-14.3,27.7,120.0-130.0
120.0,1074.0,-0.68,-8.57,17.49,-14.13,-21.58,-9.98,27.72,120.0-130.0
120.0,0.0,-3.31,-3.12,8.53,5.17,-5.21,-9.6,27.72,120.0-130.0
120.0,1841.0,0.8,-6.52,12.88,-0.68,-15.88,-13.44,27.7,120.0-130.0
120.0,0.0,6.79,-9.3,11.34,-6.29,-20.42,-15.66,27.7,120.0-130.0
120.0,2928.0,4.14,-9.38,15.19,-13.25,-26.13,-13.17,27.72,120.0-130.0
120.0,2928.0,-1.83,-0.39,5.28,8.46,0.11,-5.23,27.73,120.0-130.0
120.0,2835.0,-3.18,-4.72,10.35,4.59,-6.36,-12.21,27.72,120.0-130.0
120.0,1399.0,3.24,-8.14,13.9,-3.35,-19.71,-14.65,27.73,120.0-130.0
120.0,2171.0,7.39,-9.65,12.61,-9.91,-23.58,-15.0,27.74,120.0-130.0
120.0,1406.0,-0.32,1.73,3.62,9.29,1.47,-0.52,27.71,120.0-130.0
120.0,2078.0,-2.7,-2.18,8.17,6.02,-5.7,-7.71,27.73,120.0-130.0
120.0,2399.0,-1.32,-5.76,11.7,1.11,-12.95,-12.88,27.7,120.0-130.0
120.0,2835.0,6.05,-9.03,13.12,-5.93,-19.89,-15.47,27.72,120.0-130.0
120.0,2650.0,0.66,4.32,2.34,11.33,7.39,3.62,27.7,120.0-130.0
120.0,2181.0,-2.26,0.11,5.87,8.43,-1.09,-4.29,27.7,120.0-130.0
120.0,2922.0,-2.78,-3.8,10.72,5.23,-6.75,-10.77,27.74,120.0-130.0
120.0,2400.0,1.18,-7.42,13.21,-2.43,-18.24,-14.42,27.71,120.0-130.0
120.0,2928.0,1.89,6.68,3.24,12.34,9.56,8.22,27.72,120.0-130.0
120.0,1878.0,1.16,2.84,2.47,11.47,5.3,0.99,27.71,120.0-130.0
120.0,1417.0,-1.31,-1.33,6.49,7.27,-4.13,-6.7,27.72,120.0-130.0
120.0,490.0,-1.37,-5.4,12.11,2.1,-13.19,-12.22,27.72,120.0-130.0
120.0,1535.0,0.24,7.18,6.41,10.54,9.89,11.98,27.72,120.0-130.0
120.0,407.0,1.49,5.21,1.36,11.21,5.76,5.11,27.73,120.0-130.0
120.0,1456.0,-0.58,1.24,3.84,9.81,1.95,-2.3,27.72,120.0-130.0
120.0,1342.0,-2.64,-3.51,9.11,5.09,-6.49,-9.66,27.69,120.0-130.0
120.0,2847.0,-3.17,8.0,9.03,9.33,16.09,14.74,27.71,120.0-130.0
120.0,2927.0,0.78,6.91,5.55,11.09,7.88,9.03,27.74,120.0-130.0
120.0,2928.0,-1.01,4.0,3.37,10.52,3.7,2.38,27.7,120.0-130.0
120.0,1159.0,-1.76,-0.74,5.7,7.72,-0.62,-5.94,27.71,120.0-130.0
120.0,2928.0,-2.56,8.91,7.37,9.56,21.16,16.1,27.72,120.0-130.0
120.0,1228.0,-1.53,7.49,6.71,10.77,14.61,12.56,27.73,120.0-130.0
120.0,1806.0,1.51,5.63,4.29,10.1,3.64,6.73,27.72,120.0-130.0
120.0,272.0,-1.84,1.97,3.72,9.79,3.33,-1.17,27.71,120.0-130.0
120.0,2139.0,0.58,8.34,6.09,5.82,21.58,15.53,27.7,120.0-130.0
120.0,1823.0,-2.85,8.69,7.76,9.41,18.42,15.03,27.72,120.0-130.0
120.0,1659.0,-1.8,8.03,6.16,12.8,14.12,11.11,27.72,120.0-130.0
120.0,1941.0,1.27,4.23,3.41,10.33,3.47,4.06,27.69,120.0-130.0
120.0,1910.0,1.89,7.75,4.43,3.78,23.09,13.81,27.69,120.0-130.0
120.0,1463.0,-1.05,8.16,7.3,7.4,21.52,15.76,27.7,120.0-130.0
120.0,0.0,-1.68,7.82,8.76,9.84,11.85,13.6,27.7,120.0-130.0
120.0,0.0,0.14,6.72,3.54,11.07,6.51,9.08,27.71,120.0-130.0
120.0,0.0,1.55,5.99,6.88,-0.31,19.74,10.73,27.72,120.0-130.0
120.0,0.0,1.08,8.03,5.43,5.46,23.25,15.27,27.69,120.0-130.0
120.0,0.0,-4.15,8.33,10.67,8.72,17.3,15.32,27.71,120.0-130.0
