Speed,Voice,Acceleration X,Acceleration Y,Acceleration Z,Gyro X,Gyro Y,Gyro Z,Temperature,Speed_Range
130.0,0.0,3.16,-6.61,13.16,-7.99,-15.14,0.54,18.97,130.0-140.0
130.0,2201.0,2.7,-6.54,12.33,-7.83,-12.65,-0.19,18.97,130.0-140.0
130.0,1971.0,2.97,-7.05,13.29,-8.28,-15.12,-0.51,19.0,130.0-140.0
130.0,1842.0,0.5,10.17,5.15,11.62,4.5,0.54,18.99,130.0-140.0
130.0,1954.0,0.67,9.96,5.54,11.96,3.71,-0.04,18.97,130.0-140.0
130.0,0.0,-1.65,10.2,3.05,13.97,7.35,0.51,18.97,130.0-140.0
130.0,0.0,-0.48,9.26,3.41,14.69,9.35,1.69,18.96,130.0-140.0
130.0,0.0,-0.06,-1.45,9.91,-2.36,8.04,-0.94,18.97,130.0-140.0
130.0,0.0,0.13,0.59,9.59,-0.55,7.46,1.59,18.97,130.0-140.0
130.0,2928.0,-0.81,3.03,8.6,1.11,8.16,2.63,18.95,130.0-140.0
130.0,2928.0,0.66,-8.48,12.28,-13.33,-9.16,-0.62,18.98,130.0-140.0
130.0,2928.0,-2.69,-7.29,11.19,-10.93,-3.62,-2.65,18.95,130.0-140.0
130.0,2928.0,-4.92,-5.2,11.86,-6.54,5.51,-4.25,18.97,130.0-140.0
130.0,2938.0,-2.23,-3.31,11.67,-2.74,12.77,-4.83,18.96,130.0-140.0
130.0,2928.0,3.37,-7.34,13.13,-10.11,-17.15,-1.72,18.96,130.0-140.0
130.0,2928.0,0.91,-9.02,15.14,-13.8,-15.46,-3.21,18.95,130.0-140.0
130.0,1601.0,-1.93,-8.82,12.71,-14.06,-11.84,-2.8,18.96,130.0-140.0
130.0,2928.0,-2.15,-7.93,11.76,-11.21,-2.44,-1.95,18.98,130.0-140.0
130.0,2559.0,5.72,-2.5,9.17,0.88,-10.53,4.19,18.97,130.0-140.0
130.0,1460.0,3.49,-6.04,11.63,-5.94,-14.82,4.05,18.98,130.0-140.0
130.0,1616.0,2.01,-8.5,12.73,-9.66,-11.57,1.79,18.96,130.0-140.0
130.0,2202.0,1.47,-9.48,14.01,-12.24,-11.37,-1.3,18.98,130.0-140.0
130.0,249.0,-1.45,3.19,8.71,8.68,-1.62,1.08,18.97,130.0-140.0
130.0,2928.0,1.77,-1.18,9.2,3.72,-5.49,0.22,18.97,130.0-140.0
130.0,916.0,5.24,-5.73,9.16,-2.46,-7.8,-0.48,18.95,130.0-140.0
130.0,0.0,4.09,-9.24,15.04,-11.82,-16.04,-0.91,18.97,130.0-140.0
130.0,49.0,-4.39,6.49,7.54,10.05,3.05,1.96,18.96,130.0-140.0
130.0,0.0,-0.73,1.77,8.27,6.19,-0.66,3.04,18.95,130.0-140.0
130.0,0.0,6.32,-4.17,7.89,-0.69,-7.63,2.62,18.94,130.0-140.0
130.0,0.0,5.42,-8.76,13.65,-10.24,-15.58,0.98,18.97,130.0-140.0
130.0,0.0,-3.09,7.11,6.83,10.19,5.57,1.38,18.97,130.0-140.0
130.0,0.0,-2.23,2.87,8.62,8.25,1.24,0.85,18.97,130.0-140.0
130.0,0.0,3.6,-2.8,7.96,2.59,-4.72,0.48,18.94,130.0-140.0
130.0,0.0,5.41,-7.6,11.61,-5.86,-14.85,0.34,18.98,130.0-140.0
130.0,0.0,-1.64,8.17,7.09,11.65,0.67,2.37,18.99,130.0-140.0
130.0,0.0,-3.48,4.74,7.96,9.21,3.07,2.69,18.96,130.0-140.0
130.0,0.0,4.56,-1.42,8.3,2.83,-4.06,2.57,18.94,130.0-140.0
130.0,0.0,5.94,-6.76,10.77,-6.51,-13.12,1.2,18.97,130.0-140.0
130.0,0.0,-4.75,9.24,7.29,11.79,3.45,2.34,18.95,130.0-140.0
130.0,0.0,-2.23,5.07,6.97,10.16,8.76,0.72,18.95,130.0-140.0
130.0,0.0,7.62,-1.78,8.02,2.45,-5.39,-0.21,18.96,130.0-140.0
130.0,0.0,6.29,-7.22,11.25,-7.89,-15.67,-1.29,18.96,130.0-140.0
130.0,0.0,-5.57,9.19,6.28,12.35,5.34,0.83,18.97,130.0-140.0
130.0,0.0,-5.34,5.49,8.43,12.57,9.32,2.02,18.99,130.0-140.0
130.0,0.0,7.0,-0.91,5.19,6.24,2.64,2.57,18.95,130.0-140.0
130.0,0.0,11.72,-7.34,10.99,-5.56,-15.84,1.79,18.95,130.0-140.0
130.0,0.0,-8.83,10.39,4.03,13.1,7.52,2.77,18.96,130.0-140.0
130.0,226.0,-3.96,6.32,7.88,14.9,13.37,2.56,18.94,130.0-140.0
130.0,1158.0,5.55,0.45,7.23,7.23,-1.07,2.2,18.96,130.0-140.0
130.0,865.0,6.92,-4.84,10.32,-2.92,-14.8,1.59,18.94,130.0-140.0
130.0,2021.0,-1.31,9.25,5.63,11.45,5.6,1.01,18.94,130.0-140.0
130.0,2101.0,-6.46,8.36,7.25,12.11,3.95,1.63,18.96,130.0-140.0
130.0,2163.0,-1.03,3.31,7.3,10.08,7.4,1.82,18.94,130.0-140.0
130.0,2928.0,8.19,-2.97,7.68,1.31,-7.37,2.25,18.93,130.0-140.0
130.0,2928.0,-2.5,9.7,6.84,8.6,1.39,2.19,18.95,130.0-140.0
130.0,2928.0,-4.93,8.77,6.49,12.05,6.16,2.37,18.93,130.0-140.0
130.0,2512.0,-1.56,4.55,8.74,9.9,3.34,2.16,18.97,130.0-140.0
130.0,2928.0,2.78,-1.05,8.82,3.93,-4.94,1.64,18.96,130.0-140.0
130.0,2407.0,0.7,9.11,6.28,8.91,4.75,0.83,18.95,130.0-140.0
130.0,1648.0,-0.46,8.61,6.21,10.31,-2.91,1.52,18.94,130.0-140.0
130.0,2352.0,-6.61,6.69,8.41,11.13,4.0,1.79,18.95,130.0-140.0
130.0,2928.0,1.21,1.12,7.94,7.44,2.55,2.14,18.94,130.0-140.0
130.0,2590.0,0.68,8.96,8.61,6.54,1.66,1.61,18.95,130.0-140.0
130.0,1535.0,-2.16,9.48,5.37,9.01,-1.54,1.93,18.96,130.0-140.0
130.0,1674.0,-4.4,7.6,7.39,11.71,4.97,1.87,18.97,130.0-140.0
130.0,1680.0,-0.76,2.83,8.31,7.85,1.95,1.52,18.95,130.0-140.0
130.0,386.0,1.3,8.65,8.9,6.83,5.81,1.0,18.96,130.0-140.0
130.0,976.0,-0.51,8.79,6.58,7.62,1.11,1.15,18.97,130.0-140.0
130.0,1613.0,-5.39,8.11,7.53,9.56,-2.93,1.82,18.98,130.0-140.0
130.0,1872.0,-3.69,4.27,7.35,10.25,6.53,1.67,18.95,130.0-140.0
130.0,804.0,0.84,7.31,9.53,6.24,2.73,1.84,18.95,130.0-140.0
130.0,0.0,1.03,9.2,6.75,9.23,5.75,1.44,18.97,130.0-140.0
130.0,0.0,-3.33,9.07,7.09,9.94,-1.31,1.56,18.99,130.0-140.0
130.0,826.0,-6.5,6.59,7.11,12.74,10.16,1.55,18.98,130.0-140.0
130.0,752.0,1.33,6.32,8.26,5.26,5.4,1.14,18.96,130.0-140.0
130.0,0.0,3.57,8.91,8.13,7.79,4.55,2.11,18.96,130.0-140.0
130.0,1813.0,0.13,9.2,6.05,7.49,-2.76,2.05,18.95,130.0-140.0
130.0,1200.0,-8.28,7.9,7.1,10.52,3.66,1.61,18.97,130.0-140.0
130.0,491.0,4.99,4.37,6.38,5.78,12.05,-0.16,18.95,130.0-140.0
130.0,2002.0,4.19,7.05,10.75,4.59,-1.45,0.92,18.94,130.0-140.0
130.0,364.0,-0.78,9.05,7.5,5.87,-4.87,0.91,18.97,130.0-140.0
130.0,1758.0,-6.43,8.86,5.87,11.09,6.04,0.74,18.97,130.0-140.0
130.0,1774.0,3.6,1.6,7.14,3.58,14.69,-0.74,18.95,130.0-140.0
130.0,0.0,1.04,5.87,8.94,4.6,4.41,1.76,18.97,130.0-140.0
130.0,190.0,0.95,8.25,8.44,7.07,3.69,2.72,18.95,130.0-140.0
130.0,1421.0,1.17,8.91,6.22,8.16,-1.69,2.72,18.95,130.0-140.0
130.0,530.0,-4.88,0.48,10.26,1.63,18.19,-1.06,18.97,130.0-140.0
130.0,0.0,2.03,3.16,5.54,6.01,17.79,-0.94,18.97,130.0-140.0
130.0,0.0,3.48,5.78,9.91,5.35,4.53,-0.36,18.96,130.0-140.0
130.0,0.0,-0.89,8.64,9.55,5.26,-0.17,0.08,18.99,130.0-140.0
130.0,0.0,-4.18,-3.48,12.28,-4.71,9.06,-4.39,18.97,130.0-140.0
130.0,0.0,-4.46,0.43,9.48,0.62,16.56,-2.74,18.95,130.0-140.0
130.0,0.0,1.16,2.91,6.95,5.24,16.33,-0.36,18.96,130.0-140.0
130.0,0.0,1.75,5.99,7.76,6.22,9.03,1.93,18.96,130.0-140.0
130.0,0.0,-2.3,-7.34,12.34,-12.96,-8.27,-1.69,18.96,130.0-140.0
130.0,969.0,-6.43,-3.5,11.88,-5.76,8.0,-1.81,18.96,130.0-140.0
130.0,1952.0,-4.93,0.11,10.72,1.12,16.31,-1.23,18.94,130.0-140.0
130.0,2926.0,-1.57,4.0,6.14,6.91,17.58,-0.31,18.97,130.0-140.0
130.0,2928.0,2.76,-9.91,14.71,-15.92,-18.42,-2.27,18.98,130.0-140.0
130.0,2927.0,-3.11,-6.41,11.67,-12.3,-7.75,-4.02,18.96,130.0-140.0
130.0,2928.0,-5.37,-3.07,12.75,-5.39,8.61,-4.52,18.96,130.0-140.0
130.0,2927.0,-6.09,1.2,10.41,0.38,14.6,-2.77,18.96,130.0-140.0
130.0,2928.0,4.62,-10.35,14.83,-15.14,-15.4,-1.98,18.97,130.0-140.0
130.0,2928.0,1.45,-9.78,13.86,-18.01,-19.2,-2.05,18.97,130.0-140.0
130.0,2928.0,-5.27,-5.9,11.49,-10.85,-1.62,-1.95,18.94,130.0-140.0
130.0,2663.0,-6.31,-2.23,11.83,-3.1,13.67,-1.56,18.97,130.0-140.0
130.0,2928.0,4.91,-9.54,13.68,-10.85,-15.18,0.77,18.99,130.0-140.0
130.0,2188.0,2.74,-10.34,14.73,-15.17,-16.3,-1.49,18.95,130.0-140.0
130.0,2003.0,-0.94,-8.23,12.16,-13.43,-12.73,-2.86,18.95,130.0-140.0
130.0,2928.0,-8.61,-3.45,13.03,-5.54,6.09,-3.38,18.96,130.0-140.0
130.0,2918.0,8.83,-7.63,11.21,-5.77,-11.67,-0.05,18.95,130.0-140.0
130.0,2928.0,3.15,-9.9,16.95,-17.03,-23.38,-1.05,18.94,130.0-140.0
130.0,2928.0,-2.06,-8.54,12.17,-16.27,-15.41,-1.87,18.96,130.0-140.0
130.0,2927.0,-5.47,-5.53,12.23,-9.3,2.61,-2.33,18.95,130.0-140.0
130.0,2928.0,8.72,-6.2,8.74,-4.09,-10.13,1.64,18.98,130.0-140.0
130.0,2927.0,5.98,-9.68,15.53,-14.43,-20.66,-0.14,18.96,130.0-140.0
130.0,2928.0,1.11,-10.28,15.38,-18.5,-21.59,-2.39,18.97,130.0-140.0
130.0,2928.0,-6.52,-7.19,11.94,-12.35,-7.57,-3.59,18.97,130.0-140.0
130.0,2928.0,11.19,-4.52,5.01,3.05,-1.13,0.59,18.96,130.0-140.0
130.0,2928.0,10.38,-9.0,13.5,-10.17,-21.99,0.3,18.98,130.0-140.0
130.0,2928.0,1.58,-10.02,17.19,-18.01,-26.92,-0.63,18.97,130.0-140.0
130.0,2928.0,-4.24,-8.27,12.4,-15.37,-15.59,-1.85,18.97,130.0-140.0
130.0,2267.0,7.05,-0.43,6.07,8.42,4.26,2.83,18.96,130.0-140.0
130.0,2046.0,10.87,-5.28,8.59,-3.65,-15.53,2.13,18.96,130.0-140.0
130.0,54.0,5.03,-8.6,15.54,-13.25,-22.87,-0.16,18.95,130.0-140.0
130.0,0.0,-0.49,-9.05,15.04,-16.88,-20.58,-2.39,18.95,130.0-140.0
130.0,0.0,-2.87,4.98,8.98,11.7,7.55,0.48,18.96,130.0-140.0
130.0,0.0,3.0,0.28,7.12,6.6,2.38,0.59,18.95,130.0-140.0
130.0,0.0,10.11,-5.02,8.06,-1.35,-10.42,0.85,18.94,130.0-140.0
130.0,0.0,5.77,-8.1,13.5,-10.61,-21.13,1.15,18.93,130.0-140.0
130.0,1615.0,-4.27,8.16,5.49,13.19,6.58,2.17,18.95,130.0-140.0
130.0,2928.0,-3.52,5.52,8.32,12.93,7.93,3.29,18.95,130.0-140.0
130.0,2926.0,2.48,0.88,8.58,7.64,0.32,3.46,18.95,130.0-140.0
130.0,2928.0,6.46,-3.57,8.33,0.15,-9.09,2.59,18.94,130.0-140.0
130.0,2927.0,0.65,9.24,5.59,8.54,0.84,1.12,18.94,130.0-140.0
130.0,2926.0,-4.83,9.14,4.98,11.5,1.16,0.95,18.94,130.0-140.0
130.0,2272.0,-7.92,6.71,8.17,12.83,10.25,0.54,18.96,130.0-140.0
130.0,1523.0,0.9,1.43,8.1,9.39,6.21,1.06,18.94,130.0-140.0
130.0,2117.0,-0.95,7.92,10.85,2.79,-1.86,0.47,18.93,130.0-140.0
130.0,2017.0,-0.26,8.42,6.98,5.67,-1.66,0.57,18.93,130.0-140.0
130.0,464.0,-2.85,8.03,4.8,9.61,2.07,1.12,18.93,130.0-140.0
130.0,1387.0,-3.56,5.39,8.39,10.49,3.6,1.84,18.94,130.0-140.0
130.0,1870.0,1.4,5.33,7.9,6.3,11.12,1.34,18.94,130.0-140.0
130.0,1776.0,1.38,7.55,9.82,6.53,4.61,2.14,18.94,130.0-140.0
130.0,1197.0,1.15,8.86,6.4,7.85,-1.47,2.53,18.95,130.0-140.0
130.0,654.0,-2.01,8.54,5.67,10.46,-0.85,2.13,18.94,130.0-140.0
130.0,2928.0,0.71,2.89,6.18,6.04,18.54,-0.45,18.94,130.0-140.0
130.0,652.0,3.93,5.78,8.27,6.48,9.73,0.43,18.95,130.0-140.0
130.0,970.0,1.81,8.1,10.0,5.14,1.25,0.98,18.94,130.0-140.0
130.0,496.0,0.73,8.83,6.88,6.07,-3.43,0.95,18.95,130.0-140.0
130.0,0.0,-5.7,0.34,10.62,0.82,17.97,-2.62,18.96,130.0-140.0
130.0,0.0,1.14,3.02,5.99,5.56,18.77,-1.11,18.94,130.0-140.0
130.0,0.0,3.9,5.54,8.1,5.95,9.54,0.21,18.94,130.0-140.0
130.0,0.0,2.47,7.4,9.84,4.94,-0.7,1.21,18.96,130.0-140.0
130.0,0.0,-8.09,-3.2,12.71,-4.51,10.13,-2.77,18.94,130.0-140.0
130.0,0.0,-3.68,0.21,9.49,2.25,17.68,-1.53,18.95,130.0-140.0
130.0,0.0,3.14,3.27,6.21,6.14,16.46,0.22,18.96,130.0-140.0
130.0,0.0,3.44,6.43,9.29,6.04,6.24,1.58,18.92,130.0-140.0
130.0,1721.0,-6.81,-5.6,11.9,-8.92,-0.26,-2.33,18.92,130.0-140.0
130.0,2277.0,-7.99,-1.7,11.84,-1.09,16.69,-2.07,18.94,130.0-140.0
130.0,2928.0,0.48,0.93,7.74,3.34,19.29,-1.12,18.94,130.0-140.0
130.0,2928.0,3.49,4.09,8.13,4.07,8.85,0.27,18.93,130.0-140.0
130.0,2928.0,-1.67,-8.33,11.61,-14.24,-9.13,-3.14,18.94,130.0-140.0
130.0,2928.0,-5.74,-4.97,12.42,-8.18,1.78,-3.49,18.92,130.0-140.0
130.0,2928.0,-5.79,-1.62,10.69,-1.03,17.07,-2.98,18.93,130.0-140.0
130.0,2928.0,-0.45,1.79,8.57,3.41,14.19,-0.91,18.94,130.0-140.0
130.0,2928.0,1.91,-10.47,15.47,-15.97,-15.73,-1.55,18.93,130.0-140.0
130.0,2929.0,-2.58,-8.04,11.7,-13.81,-10.41,-2.04,18.92,130.0-140.0
130.0,2928.0,-3.18,-5.12,11.71,-6.8,6.26,-2.16,18.92,130.0-140.0
130.0,2928.0,-4.33,-0.83,11.26,-1.47,10.59,-1.24,18.92,130.0-140.0
130.0,2927.0,2.98,-9.34,14.18,-11.25,-13.0,-0.08,18.92,130.0-140.0
130.0,2928.0,1.57,-9.81,14.43,-14.78,-13.44,-1.7,18.9,130.0-140.0
130.0,2928.0,-1.7,-7.41,12.54,-12.76,-7.36,-2.77,18.93,130.0-140.0
130.0,2928.0,-5.74,-3.74,12.18,-6.4,7.09,-2.77,18.93,130.0-140.0
130.0,2928.0,5.47,-7.62,11.7,-8.55,-14.53,0.27,18.93,130.0-140.0
130.0,2929.0,3.57,-10.33,15.55,-15.71,-16.8,-1.5,18.93,130.0-140.0
130.0,2928.0,-0.72,-9.23,12.75,-15.92,-15.87,-2.4,18.92,130.0-140.0
130.0,2928.0,-7.71,-5.34,12.26,-8.75,2.61,-3.03,18.93,130.0-140.0
130.0,2928.0,10.71,-6.66,8.84,-3.26,-10.68,1.06,18.91,130.0-140.0
130.0,2928.0,4.44,-9.76,16.14,-14.49,-24.49,0.22,18.91,130.0-140.0
130.0,2927.0,-1.67,-9.45,13.72,-15.42,-17.62,-1.58,18.92,130.0-140.0
130.0,2928.0,-1.14,-8.13,12.08,-11.13,-4.44,-3.11,18.92,130.0-140.0
130.0,2928.0,4.88,-2.81,8.8,1.87,-5.95,1.35,18.92,130.0-140.0
130.0,2928.0,6.09,-7.41,10.48,-6.63,-11.28,0.63,18.93,130.0-140.0
130.0,2587.0,5.17,-10.04,15.66,-14.94,-19.39,-0.4,18.91,130.0-140.0
130.0,1618.0,-0.44,-9.34,14.58,-17.95,-22.03,-1.44,18.92,130.0-140.0
130.0,1122.0,2.72,0.92,6.17,9.23,7.54,1.9,18.92,130.0-140.0
130.0,2539.0,10.13,-5.29,9.01,-2.05,-11.43,1.18,18.91,130.0-140.0
130.0,0.0,4.33,-8.71,14.11,-11.74,-18.52,-0.3,18.93,130.0-140.0
130.0,1055.0,1.33,-9.79,14.83,-15.69,-18.07,-1.99,18.92,130.0-140.0
130.0,0.0,-3.61,3.91,9.04,9.87,3.84,0.71,18.91,130.0-140.0
130.0,0.0,3.53,-1.75,7.16,5.08,1.56,0.91,18.92,130.0-140.0
130.0,0.0,9.07,-7.02,9.18,-4.0,-10.06,1.32,18.91,130.0-140.0
130.0,0.0,5.9,-10.14,16.05,-13.89,-20.77,0.66,18.9,130.0-140.0
130.0,1023.0,-8.95,7.21,7.42,12.46,7.09,2.65,18.91,130.0-140.0
130.0,380.0,-0.3,1.91,7.77,10.26,7.78,2.6,18.91,130.0-140.0
130.0,1805.0,8.55,-3.5,6.94,1.99,-5.68,2.16,18.9,130.0-140.0
130.0,1936.0,7.9,-7.9,12.35,-7.77,-16.16,0.65,18.9,130.0-140.0
130.0,2928.0,-4.51,8.65,5.02,11.1,3.51,0.85,18.92,130.0-140.0
130.0,2928.0,-4.92,5.83,8.91,11.06,5.22,0.39,18.92,130.0-140.0
130.0,2927.0,-0.71,1.28,7.26,8.02,5.46,0.47,18.91,130.0-140.0
130.0,2927.0,9.58,-4.75,7.38,0.57,-6.15,1.05,18.92,130.0-140.0
130.0,2926.0,-2.06,8.83,6.18,6.65,-3.53,1.73,18.91,130.0-140.0
130.0,2927.0,-5.57,8.25,6.2,11.09,3.22,2.46,18.92,130.0-140.0
130.0,2928.0,-4.84,5.08,8.24,11.7,9.19,2.59,18.91,130.0-140.0
130.0,2928.0,2.84,-0.25,8.64,6.37,-0.0,2.57,18.9,130.0-140.0
130.0,1987.0,-0.37,8.54,7.93,6.89,3.43,1.82,18.92,130.0-140.0
130.0,2269.0,-0.18,8.6,5.6,9.2,-1.42,1.49,18.92,130.0-140.0
130.0,1803.0,-3.54,7.42,6.92,11.53,3.04,1.35,18.9,130.0-140.0
130.0,1517.0,-4.14,4.51,9.65,10.16,1.94,1.59,18.91,130.0-140.0
130.0,2368.0,2.87,7.46,9.11,6.48,7.31,0.33,18.9,130.0-140.0
130.0,1633.0,1.52,8.86,8.16,5.93,-0.99,0.91,18.91,130.0-140.0
130.0,2928.0,-3.41,9.15,5.39,8.65,-2.4,1.38,18.9,130.0-140.0
130.0,2211.0,-7.0,7.08,7.95,10.74,4.93,1.78,18.91,130.0-140.0
130.0,1795.0,4.79,5.01,7.29,5.64,10.59,0.83,18.91,130.0-140.0
130.0,1461.0,2.29,7.5,10.29,4.83,1.48,1.67,18.91,130.0-140.0
130.0,2102.0,-0.53,8.62,6.89,7.09,-2.64,1.93,18.9,130.0-140.0
130.0,2451.0,-3.09,8.28,6.14,10.89,0.4,1.55,18.9,130.0-140.0
130.0,2094.0,1.55,2.76,6.81,5.46,16.45,-0.89,18.89,130.0-140.0
130.0,1963.0,2.52,6.27,8.23,6.82,9.22,0.3,18.91,130.0-140.0
130.0,385.0,1.29,8.73,8.11,7.52,3.3,1.21,18.89,130.0-140.0
130.0,0.0,0.77,9.08,5.62,9.2,-0.35,1.96,18.91,130.0-140.0
130.0,351.0,-4.23,0.82,9.74,1.28,16.48,-0.76,18.89,130.0-140.0
130.0,0.0,0.74,4.38,6.59,5.64,15.49,0.66,18.89,130.0-140.0
130.0,0.0,2.79,6.98,8.68,6.51,9.44,1.23,18.89,130.0-140.0
130.0,0.0,1.5,8.68,7.56,6.63,0.98,1.37,18.89,130.0-140.0
130.0,0.0,-7.19,-2.06,12.09,-3.68,11.43,-3.09,18.92,130.0-140.0
130.0,0.0,-1.55,1.19,8.35,2.85,18.04,-2.97,18.9,130.0-140.0
130.0,0.0,1.35,4.65,7.72,5.76,12.48,-1.7,18.89,130.0-140.0
130.0,0.0,1.49,7.67,7.91,7.76,8.48,-0.54,18.9,130.0-140.0
130.0,659.0,-4.69,-5.52,12.5,-9.02,0.63,-3.3,18.89,130.0-140.0
130.0,535.0,-7.14,-0.8,11.93,-1.56,12.89,-0.63,18.9,130.0-140.0
130.0,1770.0,-1.78,2.67,6.6,5.08,19.18,1.46,18.92,130.0-140.0
130.0,2928.0,2.33,6.01,7.83,7.35,11.41,3.38,18.92,130.0-140.0
130.0,2928.0,-1.16,-7.8,12.7,-12.64,-7.37,-0.13,18.89,130.0-140.0
130.0,2928.0,-6.08,-3.43,12.35,-6.92,5.8,-2.17,18.89,130.0-140.0
130.0,2928.0,-2.39,-0.05,9.54,0.24,14.98,-3.58,18.89,130.0-140.0
130.0,2927.0,-0.98,4.28,8.18,3.61,10.65,-3.52,18.89,130.0-140.0
130.0,2928.0,0.6,-9.23,13.75,-13.45,-9.28,-4.95,18.9,130.0-140.0
130.0,2928.0,-0.86,-6.78,12.47,-11.08,-1.85,-4.4,18.88,130.0-140.0
130.0,2928.0,-6.95,-1.78,12.37,-5.62,7.71,-2.57,18.89,130.0-140.0
130.0,2928.0,-1.16,1.04,6.36,1.95,20.26,-1.29,18.89,130.0-140.0
130.0,2928.0,-0.56,-10.01,14.43,-16.29,-20.04,0.43,18.89,130.0-140.0
130.0,2928.0,-1.59,-8.64,12.14,-12.06,-4.04,-0.19,18.9,130.0-140.0
130.0,2928.0,-3.61,-5.35,12.97,-7.97,1.34,-0.69,18.91,130.0-140.0
130.0,2928.0,-3.23,-1.24,10.31,-0.78,15.82,-1.5,18.87,130.0-140.0
130.0,2925.0,2.0,-9.85,14.63,-12.91,-16.07,-1.3,18.89,130.0-140.0
130.0,2928.0,-1.02,-9.4,13.54,-12.96,-11.93,-3.23,18.87,130.0-140.0
130.0,2928.0,-4.53,-6.46,12.34,-9.02,-0.69,-3.73,18.88,130.0-140.0
130.0,2851.0,-4.36,-2.97,12.08,-3.56,11.95,-2.95,18.89,130.0-140.0
130.0,2928.0,4.59,-8.08,13.94,-11.54,-18.43,-0.18,18.89,130.0-140.0
130.0,2928.0,0.25,-9.38,13.93,-16.2,-16.77,-1.53,18.89,130.0-140.0
130.0,2928.0,-1.82,-8.67,11.88,-13.89,-7.4,-2.68,18.91,130.0-140.0
130.0,2928.0,-5.33,-5.89,11.83,-8.5,3.37,-2.63,18.89,130.0-140.0
130.0,2927.0,7.07,-6.69,10.83,-5.65,-15.06,1.61,18.87,130.0-140.0
130.0,2928.0,4.45,-9.8,14.15,-12.49,-16.8,-0.39,18.88,130.0-140.0
130.0,2927.0,2.42,-10.63,15.26,-16.13,-19.35,-2.25,18.89,130.0-140.0
130.0,2929.0,-3.09,-8.28,11.58,-12.47,-9.35,-3.5,18.88,130.0-140.0
130.0,2928.0,5.53,-2.2,7.55,5.2,-4.14,1.37,18.9,130.0-140.0
130.0,1569.0,7.74,-7.17,10.95,-4.72,-13.46,1.18,18.88,130.0-140.0
130.0,1646.0,3.32,-9.49,15.34,-14.09,-20.39,0.97,18.89,130.0-140.0
130.0,1167.0,1.67,-9.47,14.03,-16.12,-15.29,-0.53,18.87,130.0-140.0
130.0,0.0,-2.92,2.19,8.16,7.18,3.84,2.92,18.89,130.0-140.0
130.0,0.0,7.57,-4.06,6.93,1.46,-2.76,1.82,18.89,130.0-140.0
130.0,0.0,9.45,-8.88,11.75,-9.65,-14.07,0.04,18.88,130.0-140.0
130.0,0.0,4.82,-10.74,17.41,-18.58,-26.61,-1.82,18.88,130.0-140.0
130.0,0.0,-9.08,5.31,8.68,12.4,11.75,-0.02,18.87,130.0-140.0
130.0,113.0,3.83,-0.94,5.93,8.22,6.65,0.25,18.89,130.0-140.0
130.0,0.0,11.65,-6.65,8.42,-1.52,-10.12,0.83,18.89,130.0-140.0
130.0,2254.0,6.2,-9.76,14.95,-13.04,-21.55,0.59,18.87,130.0-140.0
130.0,2402.0,-6.38,7.72,6.73,12.19,5.71,1.88,18.89,130.0-140.0
130.0,1735.0,-3.51,3.99,7.78,11.26,8.06,2.05,18.89,130.0-140.0
130.0,2928.0,5.13,-1.75,8.5,5.0,-1.42,2.1,18.89,130.0-140.0
