Speed,Voice,Acceleration X,Acceleration Y,Acceleration Z,Gyro X,Gyro Y,Gyro Z,Temperature,Speed_Range
40.0,881.0,-0.4,0.01,9.74,-0.07,0.02,0.06,27.97,40.0-50.0
40.0,1651.0,-0.38,0.02,9.74,-0.08,-0.05,-0.0,27.94,40.0-50.0
40.0,1351.0,-0.38,0.01,9.79,-0.11,-0.05,0.08,27.96,40.0-50.0
40.0,1146.0,-0.35,0.03,9.75,-0.16,-0.01,0.06,27.96,40.0-50.0
40.0,1319.0,-0.38,0.01,9.77,-0.1,-0.05,0.11,27.96,40.0-50.0
40.0,1014.0,-0.41,0.02,9.75,-0.05,0.02,0.12,27.98,40.0-50.0
40.0,1328.0,-0.4,0.01,9.72,-0.08,0.04,0.08,27.97,40.0-50.0
40.0,1066.0,-0.39,0.02,9.75,-0.1,0.01,0.02,27.96,40.0-50.0
40.0,1701.0,-0.4,0.03,9.75,-0.07,0.01,0.03,27.97,40.0-50.0
40.0,1840.0,-0.39,0.02,9.76,-0.14,0.02,0.05,27.95,40.0-50.0
40.0,1009.0,-0.39,0.03,9.76,-0.13,0.02,0.03,27.94,40.0-50.0
40.0,1857.0,-0.41,0.05,9.75,-0.11,0.05,0.11,27.97,40.0-50.0
40.0,1889.0,-0.4,0.03,9.75,-0.13,-0.04,0.12,27.97,40.0-50.0
40.0,1527.0,-0.4,0.02,9.79,-0.14,0.01,0.11,27.97,40.0-50.0
40.0,1437.0,-0.4,0.05,9.76,-0.14,-0.04,0.09,27.95,40.0-50.0
40.0,1098.0,-0.37,0.06,9.75,-0.11,0.04,0.08,27.96,40.0-50.0
40.0,733.0,-0.35,0.04,9.77,-0.1,0.01,-0.02,27.98,40.0-50.0
40.0,823.0,-0.4,0.03,9.73,-0.14,0.07,-0.0,27.96,40.0-50.0
40.0,1264.0,-0.39,0.02,9.78,-0.13,-0.04,0.03,27.94,40.0-50.0
40.0,1072.0,-0.37,0.04,9.74,-0.1,0.04,0.05,27.95,40.0-50.0
40.0,1935.0,-0.42,0.04,9.81,-0.14,-0.04,0.06,27.96,40.0-50.0
40.0,1074.0,-0.37,0.01,9.72,-0.08,-0.01,0.06,27.97,40.0-50.0
40.0,1635.0,-0.4,0.03,9.77,-0.1,0.01,0.11,27.95,40.0-50.0
40.0,2091.0,-0.38,0.01,9.73,-0.13,0.05,0.09,27.94,40.0-50.0
40.0,1346.0,-0.41,0.01,9.75,-0.13,-0.01,0.09,27.94,40.0-50.0
40.0,1650.0,-0.41,0.02,9.78,-0.05,0.02,0.11,27.95,40.0-50.0
40.0,1595.0,-0.37,0.01,9.76,-0.11,-0.04,0.11,27.97,40.0-50.0
40.0,1269.0,-0.38,0.03,9.75,-0.11,0.02,-0.02,27.95,40.0-50.0
40.0,1174.0,-0.37,0.03,9.8,-0.1,0.01,0.03,27.97,40.0-50.0
40.0,834.0,-0.4,0.03,9.8,-0.08,-0.07,-0.0,27.97,40.0-50.0
40.0,1386.0,-0.39,0.0,9.76,-0.17,0.04,0.02,27.97,40.0-50.0
40.0,1229.0,-0.38,0.04,9.77,-0.08,-0.02,0.09,27.96,40.0-50.0
40.0,1683.0,-0.38,0.04,9.74,-0.08,0.02,0.05,27.96,40.0-50.0
40.0,2065.0,-0.4,0.05,9.76,-0.1,0.02,0.17,27.96,40.0-50.0
40.0,972.0,-0.35,0.03,9.76,-0.14,0.07,0.12,27.97,40.0-50.0
40.0,1520.0,-0.37,-0.0,9.79,-0.08,-0.01,0.12,27.97,40.0-50.0
40.0,1486.0,-0.4,0.03,9.74,-0.08,0.01,0.08,27.98,40.0-50.0
40.0,1520.0,-0.38,0.04,9.69,-0.11,0.08,0.08,27.96,40.0-50.0
40.0,1450.0,-0.43,0.01,9.77,-0.16,-0.05,0.02,27.96,40.0-50.0
40.0,1533.0,-0.41,0.01,9.74,-0.14,0.02,0.08,27.94,40.0-50.0
40.0,1664.0,-0.37,0.03,9.78,-0.05,0.01,0.05,27.96,40.0-50.0
40.0,1791.0,-0.39,0.02,9.76,-0.07,0.04,0.09,27.95,40.0-50.0
40.0,1237.0,-0.38,0.02,9.78,-0.11,-0.01,0.09,27.95,40.0-50.0
40.0,1117.0,-0.4,0.03,9.75,-0.05,0.08,0.08,27.95,40.0-50.0
40.0,1590.0,-0.4,0.06,9.78,-0.1,0.07,0.09,27.96,40.0-50.0
40.0,2145.0,-0.39,0.02,9.78,-0.11,0.04,0.09,27.96,40.0-50.0
40.0,1798.0,-0.39,0.05,9.8,-0.11,0.04,0.05,27.96,40.0-50.0
40.0,1109.0,-0.38,0.03,9.81,-0.07,-0.07,-0.02,27.94,40.0-50.0
40.0,895.0,-0.37,0.04,9.74,-0.14,-0.01,0.02,27.97,40.0-50.0
40.0,1063.0,-0.42,0.04,9.77,-0.13,-0.08,0.08,27.96,40.0-50.0
40.0,1658.0,-0.4,0.04,9.82,-0.07,-0.01,0.06,27.95,40.0-50.0
40.0,1102.0,-0.41,0.01,9.8,-0.11,-0.07,0.02,27.97,40.0-50.0
40.0,1703.0,-0.37,0.0,9.79,-0.1,-0.02,0.09,27.96,40.0-50.0
40.0,1136.0,-0.38,0.03,9.72,-0.1,-0.04,0.12,27.96,40.0-50.0
40.0,1554.0,-0.4,0.01,9.78,-0.1,0.04,0.05,27.96,40.0-50.0
40.0,1359.0,-0.38,0.04,9.8,-0.08,0.04,-0.03,27.97,40.0-50.0
40.0,1564.0,-0.38,0.03,9.77,-0.05,-0.07,0.03,27.97,40.0-50.0
40.0,1868.0,-0.39,0.06,9.7,-0.07,-0.02,0.02,27.97,40.0-50.0
40.0,961.0,-0.38,0.06,9.79,-0.14,0.04,0.09,27.98,40.0-50.0
40.0,1911.0,-0.38,0.01,9.73,-0.1,0.07,0.06,27.98,40.0-50.0
40.0,1425.0,-0.39,0.02,9.77,-0.07,0.07,0.06,27.97,40.0-50.0
40.0,2302.0,-0.41,0.03,9.73,-0.08,0.01,0.14,27.97,40.0-50.0
40.0,1630.0,-0.4,0.05,9.74,-0.13,-0.01,0.11,27.95,40.0-50.0
40.0,1408.0,-0.39,0.03,9.77,-0.19,-0.01,0.11,27.97,40.0-50.0
40.0,2091.0,-0.41,0.04,9.76,-0.1,-0.01,0.06,27.97,40.0-50.0
40.0,702.0,-0.38,0.03,9.76,-0.13,-0.01,0.08,27.95,40.0-50.0
40.0,1163.0,-0.38,0.04,9.74,-0.14,0.02,0.05,27.95,40.0-50.0
40.0,2363.0,-0.39,0.04,9.74,-0.11,-0.02,0.06,27.96,40.0-50.0
40.0,1473.0,-0.41,0.05,9.74,-0.11,0.01,0.03,27.97,40.0-50.0
40.0,1430.0,-0.39,0.02,9.79,-0.17,0.01,0.03,27.95,40.0-50.0
40.0,654.0,-0.37,0.05,9.76,-0.1,0.02,0.05,27.96,40.0-50.0
40.0,880.0,-0.4,0.06,9.73,-0.13,-0.04,0.08,27.96,40.0-50.0
40.0,1177.0,-0.38,0.03,9.74,-0.08,0.02,0.05,27.95,40.0-50.0
40.0,2331.0,-0.37,0.04,9.77,-0.11,0.02,0.15,27.94,40.0-50.0
40.0,1456.0,-0.38,0.05,9.79,-0.08,-0.04,0.17,27.94,40.0-50.0
40.0,995.0,-0.38,0.04,9.8,-0.08,-0.04,0.08,27.95,40.0-50.0
40.0,892.0,-0.39,0.03,9.73,-0.16,0.01,0.02,27.99,40.0-50.0
40.0,2174.0,-0.39,0.06,9.74,-0.05,-0.02,-0.02,27.98,40.0-50.0
40.0,1849.0,-0.39,0.03,9.76,-0.1,0.07,-0.02,27.97,40.0-50.0
40.0,1647.0,-0.39,0.03,9.77,-0.14,-0.04,0.03,27.97,40.0-50.0
40.0,990.0,-0.38,0.04,9.76,-0.07,-0.05,0.05,27.96,40.0-50.0
40.0,1322.0,-0.4,0.04,9.78,-0.07,-0.02,0.12,27.97,40.0-50.0
40.0,1446.0,-0.39,0.03,9.74,-0.07,-0.04,0.08,27.97,40.0-50.0
40.0,1813.0,-0.4,0.02,9.75,-0.1,0.07,0.09,27.96,40.0-50.0
40.0,1661.0,-0.36,0.04,9.77,-0.05,-0.04,0.11,27.94,40.0-50.0
40.0,497.0,-0.38,0.03,9.73,-0.1,-0.01,0.05,27.95,40.0-50.0
40.0,842.0,-0.4,0.04,9.8,-0.05,-0.01,0.05,27.94,40.0-50.0
40.0,2352.0,-0.42,0.0,9.77,-0.16,0.07,-0.03,27.95,40.0-50.0
40.0,2256.0,-0.38,0.04,9.78,-0.16,0.04,-0.0,27.94,40.0-50.0
40.0,1754.0,-0.39,0.04,9.78,-0.17,-0.05,0.08,27.97,40.0-50.0
40.0,1321.0,-0.39,0.02,9.78,-0.11,0.02,0.08,27.96,40.0-50.0
40.0,567.0,-0.37,0.01,9.8,-0.01,-0.05,0.12,27.95,40.0-50.0
40.0,1521.0,-0.37,0.0,9.79,0.03,-0.02,0.11,27.97,40.0-50.0
40.0,1181.0,-0.38,0.01,9.76,0.03,-0.05,0.09,27.95,40.0-50.0
40.0,2237.0,-0.4,0.03,9.81,-0.04,0.02,0.12,27.95,40.0-50.0
40.0,1911.0,-0.39,0.03,9.74,-0.05,-0.01,0.03,27.94,40.0-50.0
40.0,1050.0,-0.37,0.01,9.73,-0.05,0.01,-0.0,27.96,40.0-50.0
40.0,1271.0,-0.38,0.05,9.76,-0.08,0.04,0.05,27.96,40.0-50.0
40.0,1648.0,-0.39,0.06,9.74,-0.1,-0.02,-0.03,27.95,40.0-50.0
40.0,2496.0,-0.4,0.04,9.78,-0.13,0.02,0.05,27.96,40.0-50.0
40.0,892.0,-0.4,0.03,9.78,-0.13,-0.05,0.06,27.97,40.0-50.0
40.0,1818.0,-0.39,0.03,9.75,-0.08,-0.01,0.02,27.96,40.0-50.0
40.0,1056.0,-0.39,0.04,9.74,-0.11,0.05,0.06,27.97,40.0-50.0
40.0,2927.0,-0.38,0.03,9.73,-0.16,-0.01,0.14,27.96,40.0-50.0
40.0,2928.0,-0.38,0.03,9.78,-0.14,-0.08,0.09,27.97,40.0-50.0
40.0,1345.0,-0.4,-0.01,9.75,-0.13,-0.02,0.05,27.96,40.0-50.0
40.0,467.0,-0.39,0.03,9.74,-0.07,0.02,0.06,27.96,40.0-50.0
40.0,2645.0,-0.38,0.02,9.77,-0.1,0.01,0.09,27.95,40.0-50.0
40.0,2743.0,-0.43,0.03,9.77,-0.1,-0.02,0.03,27.96,40.0-50.0
40.0,433.0,-0.38,0.03,9.77,-0.08,-0.11,0.06,27.95,40.0-50.0
40.0,0.0,-0.4,0.03,9.73,-0.07,-0.04,0.08,27.94,40.0-50.0
40.0,850.0,-0.39,0.04,9.8,-0.07,-0.08,0.08,27.96,40.0-50.0
40.0,2493.0,-0.34,0.03,9.8,-0.11,0.01,0.09,27.98,40.0-50.0
40.0,2794.0,-0.37,0.02,9.78,-0.16,-0.01,0.09,27.97,40.0-50.0
40.0,1388.0,-0.42,0.03,9.79,-0.11,-0.02,0.06,27.94,40.0-50.0
40.0,0.0,-0.35,0.04,9.78,-0.11,-0.08,-0.02,27.95,40.0-50.0
40.0,1872.0,-0.39,0.02,9.76,-0.13,0.02,0.05,27.95,40.0-50.0
40.0,2928.0,-0.4,0.02,9.75,-0.14,0.04,-0.05,27.97,40.0-50.0
40.0,1905.0,-0.4,0.04,9.77,-0.11,-0.04,0.11,27.99,40.0-50.0
40.0,1256.0,-0.37,0.05,9.77,-0.1,-0.04,0.09,27.95,40.0-50.0
40.0,48.0,-0.4,0.06,9.78,-0.1,-0.02,0.09,27.97,40.0-50.0
40.0,1734.0,-0.37,0.05,9.78,-0.11,0.08,0.09,27.97,40.0-50.0
40.0,2928.0,-0.4,0.04,9.78,-0.11,0.02,0.14,27.97,40.0-50.0
40.0,686.0,-0.41,0.04,9.74,-0.1,-0.02,0.06,27.97,40.0-50.0
40.0,751.0,-0.38,0.03,9.81,-0.13,-0.1,0.05,27.97,40.0-50.0
40.0,1488.0,-0.39,0.04,9.74,-0.14,-0.02,0.08,27.95,40.0-50.0
40.0,2158.0,-0.4,0.01,9.73,-0.08,-0.05,0.05,27.99,40.0-50.0
40.0,2443.0,-0.39,0.04,9.74,-0.07,0.07,-0.02,27.95,40.0-50.0
40.0,1653.0,-0.39,0.03,9.73,-0.07,-0.02,0.03,27.96,40.0-50.0
40.0,0.0,-0.4,0.0,9.77,-0.13,-0.08,0.05,27.96,40.0-50.0
40.0,1413.0,-0.36,0.02,9.79,-0.08,-0.04,0.05,27.95,40.0-50.0
40.0,2287.0,-0.41,0.04,9.74,-0.05,-0.01,0.05,27.93,40.0-50.0
40.0,1877.0,-0.34,0.04,9.72,-0.08,0.08,0.11,27.93,40.0-50.0
40.0,1136.0,-0.4,0.02,9.78,-0.14,0.01,-0.0,27.96,40.0-50.0
40.0,798.0,-0.4,-0.0,9.75,-0.1,0.04,0.02,27.97,40.0-50.0
40.0,1255.0,-0.39,0.04,9.75,-0.11,0.02,0.03,27.96,40.0-50.0
40.0,1712.0,-0.4,0.03,9.78,-0.11,-0.02,0.06,27.95,40.0-50.0
40.0,1328.0,-0.43,0.04,9.77,-0.1,0.01,0.09,27.94,40.0-50.0
40.0,1501.0,-0.4,-0.0,9.8,-0.13,0.01,0.05,27.96,40.0-50.0
40.0,1168.0,-0.4,0.04,9.77,-0.13,0.04,0.03,27.94,40.0-50.0
40.0,1485.0,-0.39,0.01,9.74,-0.07,-0.02,0.06,27.96,40.0-50.0
40.0,1664.0,-0.4,0.02,9.76,-0.13,0.01,0.02,27.99,40.0-50.0
40.0,1404.0,-0.39,0.05,9.73,-0.07,0.05,0.06,27.97,40.0-50.0
40.0,2338.0,-0.39,0.05,9.77,-0.08,-0.07,0.05,27.96,40.0-50.0
40.0,601.0,-0.39,0.06,9.78,-0.1,-0.08,0.12,27.97,40.0-50.0
40.0,525.0,-0.37,0.04,9.77,-0.1,-0.05,0.02,27.95,40.0-50.0
40.0,1837.0,-0.4,0.07,9.73,-0.11,0.02,-0.0,27.94,40.0-50.0
40.0,2173.0,-0.4,0.02,9.76,-0.13,0.05,0.03,27.95,40.0-50.0
40.0,1615.0,-0.39,0.02,9.77,-0.1,-0.04,0.05,27.97,40.0-50.0
40.0,2064.0,-0.39,0.03,9.76,-0.14,-0.04,0.06,27.95,40.0-50.0
40.0,1421.0,-0.37,0.04,9.8,-0.16,-0.05,0.11,27.94,40.0-50.0
40.0,1679.0,-0.36,0.02,9.76,-0.14,0.04,0.12,27.96,40.0-50.0
40.0,1163.0,-0.38,0.04,9.75,-0.13,-0.01,0.08,27.95,40.0-50.0
40.0,1763.0,-0.39,0.02,9.73,-0.1,0.01,0.09,27.95,40.0-50.0
40.0,2147.0,-0.38,0.04,9.78,-0.13,0.02,-0.0,27.96,40.0-50.0
40.0,653.0,-0.38,0.06,9.77,-0.08,0.01,0.02,27.94,40.0-50.0
40.0,1626.0,-0.36,0.05,9.76,-0.14,-0.01,0.08,27.94,40.0-50.0
40.0,1275.0,-0.39,0.05,9.74,-0.1,0.01,0.09,27.96,40.0-50.0
40.0,1214.0,-0.41,0.04,9.78,-0.11,0.05,0.03,27.97,40.0-50.0
40.0,905.0,-0.36,0.05,9.76,-0.11,-0.02,0.08,27.96,40.0-50.0
40.0,1493.0,-0.4,0.03,9.76,-0.11,0.02,0.03,27.94,40.0-50.0
40.0,799.0,-0.39,0.0,9.74,-0.1,-0.07,0.06,27.96,40.0-50.0
40.0,1509.0,-0.41,0.02,9.74,-0.1,0.01,0.08,27.96,40.0-50.0
40.0,1872.0,-0.37,0.02,9.73,-0.16,-0.02,0.11,27.99,40.0-50.0
40.0,2064.0,-0.39,0.03,9.77,-0.13,-0.01,0.05,27.96,40.0-50.0
40.0,1625.0,-0.39,0.03,9.74,-0.1,-0.08,-0.0,27.97,40.0-50.0
40.0,763.0,-0.39,0.05,9.75,-0.11,-0.01,0.05,27.96,40.0-50.0
40.0,1020.0,-0.41,0.02,9.78,-0.13,-0.04,0.05,27.96,40.0-50.0
40.0,1493.0,-0.39,0.04,9.72,-0.11,-0.08,0.03,27.97,40.0-50.0
40.0,848.0,-0.36,0.02,9.79,-0.07,-0.02,0.06,27.97,40.0-50.0
40.0,1302.0,-0.39,0.03,9.78,-0.13,-0.04,-0.0,27.97,40.0-50.0
40.0,1418.0,-0.4,0.05,9.75,-0.11,-0.01,0.08,27.95,40.0-50.0
40.0,1328.0,-0.37,0.02,9.74,-0.16,0.01,0.02,27.97,40.0-50.0
40.0,1360.0,-0.36,0.04,9.74,-0.11,-0.01,0.03,27.96,40.0-50.0
40.0,594.0,-0.38,0.04,9.78,-0.11,0.01,0.06,27.95,40.0-50.0
40.0,1856.0,-0.36,0.03,9.78,-0.16,-0.02,0.06,27.97,40.0-50.0
40.0,2059.0,-0.39,0.02,9.75,-0.11,-0.01,0.03,27.95,40.0-50.0
40.0,1863.0,-0.39,0.01,9.74,-0.02,0.01,0.06,27.97,40.0-50.0
40.0,922.0,-0.4,0.04,9.78,-0.02,0.04,0.08,27.96,40.0-50.0
40.0,1104.0,-0.4,0.04,9.78,-0.08,0.02,0.08,27.95,40.0-50.0
40.0,1066.0,-0.38,0.06,9.77,-0.1,-0.07,0.09,27.97,40.0-50.0
40.0,1137.0,-0.37,0.03,9.76,-0.11,-0.11,0.03,27.95,40.0-50.0
40.0,1317.0,-0.4,0.04,9.77,-0.14,0.01,0.05,27.97,40.0-50.0
40.0,1318.0,-0.38,0.01,9.77,-0.13,0.07,0.03,27.97,40.0-50.0
40.0,1007.0,-0.36,0.04,9.8,-0.11,0.02,0.06,27.97,40.0-50.0
40.0,1917.0,-0.39,0.02,9.73,-0.07,0.02,0.06,27.95,40.0-50.0
40.0,1092.0,-0.38,0.02,9.77,-0.02,-0.01,0.05,27.96,40.0-50.0
40.0,1152.0,-0.41,0.03,9.79,-0.01,-0.07,0.05,27.97,40.0-50.0
40.0,2083.0,-0.39,0.05,9.76,-0.07,-0.01,0.11,27.98,40.0-50.0
40.0,1139.0,-0.4,0.04,9.74,-0.07,0.01,0.11,27.94,40.0-50.0
40.0,1616.0,-0.4,0.01,9.75,-0.14,0.05,0.06,27.93,40.0-50.0
40.0,2160.0,-0.41,0.04,9.78,-0.08,-0.1,0.08,27.95,40.0-50.0
40.0,1810.0,-0.39,0.03,9.74,-0.11,-0.16,0.05,27.98,40.0-50.0
40.0,1089.0,-0.41,-0.01,9.77,-0.16,-0.01,0.05,27.98,40.0-50.0
40.0,2928.0,-12.66,20.97,9.01,10.54,15.1,15.3,27.59,40.0-50.0
40.0,2832.0,10.7,-19.37,8.37,-9.57,-6.97,-15.17,27.59,40.0-50.0
40.0,1904.0,11.04,-21.45,12.51,-16.5,-20.42,-21.06,27.61,40.0-50.0
40.0,2928.0,-10.42,17.17,6.26,19.62,17.94,2.06,27.59,40.0-50.0
40.0,2928.0,4.85,-11.29,16.2,-16.35,-15.51,-18.97,27.59,40.0-50.0
40.0,701.0,-4.1,2.24,4.58,7.24,22.3,-9.38,27.6,40.0-50.0
40.0,1204.0,-0.31,-5.17,9.13,-3.21,1.88,-10.7,27.59,40.0-50.0
40.0,1456.0,1.02,-2.59,6.44,1.89,1.18,-1.36,27.58,40.0-50.0
40.0,1367.0,-0.07,-3.04,19.79,-9.85,-18.9,9.34,27.59,40.0-50.0
40.0,2928.0,-2.34,2.67,10.44,-2.28,-0.4,14.71,27.6,40.0-50.0
40.0,2629.0,3.61,-7.0,8.87,-7.44,-0.88,-3.68,27.59,40.0-50.0
40.0,2007.0,2.67,-7.21,10.51,-9.6,-5.52,-9.51,27.6,40.0-50.0
40.0,0.0,0.66,-6.47,10.7,-13.46,-0.25,-15.76,27.6,40.0-50.0
40.0,2165.0,-1.48,-5.3,10.39,-12.17,7.84,-19.12,27.6,40.0-50.0
40.0,711.0,1.6,-2.24,13.13,3.23,-10.16,-13.72,27.6,40.0-50.0
40.0,962.0,0.17,-0.77,14.47,4.07,-12.14,-6.53,27.59,40.0-50.0
40.0,2928.0,-0.31,1.9,13.44,6.19,-15.62,5.1,27.59,40.0-50.0
40.0,87.0,0.74,6.04,12.53,8.49,-19.07,16.65,27.59,40.0-50.0
40.0,2603.0,-0.79,-6.18,6.76,-10.76,23.49,-3.19,27.59,40.0-50.0
40.0,915.0,-2.58,-3.96,8.9,-7.48,17.69,0.56,27.58,40.0-50.0
40.0,2683.0,2.57,2.45,13.56,5.47,-4.78,10.71,27.57,40.0-50.0
40.0,495.0,3.2,6.89,15.96,10.34,-31.91,12.3,27.57,40.0-50.0
40.0,915.0,-3.65,-5.62,4.57,-10.21,30.13,-17.03,27.59,40.0-50.0
40.0,2928.0,2.71,0.11,10.04,4.24,15.89,-8.71,27.6,40.0-50.0
40.0,1092.0,3.35,5.84,14.83,10.52,-22.97,2.01,27.57,40.0-50.0
40.0,0.0,-2.18,-2.69,8.88,-6.89,-2.75,-8.77,27.58,40.0-50.0
40.0,1373.0,0.64,3.76,10.35,6.75,4.39,4.59,27.61,40.0-50.0
40.0,1834.0,-1.34,3.4,10.42,6.71,-5.47,8.93,27.57,40.0-50.0
40.0,1411.0,-2.47,-5.01,9.33,-13.89,5.59,0.35,27.59,40.0-50.0
40.0,1594.0,0.05,2.47,9.87,0.38,0.54,10.71,27.59,40.0-50.0
40.0,747.0,-2.58,-2.35,9.23,-3.85,5.84,0.89,27.59,40.0-50.0
40.0,1137.0,0.51,1.21,9.69,-2.4,0.97,1.27,27.61,40.0-50.0
40.0,1738.0,-2.68,2.71,8.97,6.42,0.36,-4.3,27.6,40.0-50.0
40.0,1076.0,0.8,-2.64,9.96,-4.29,1.24,-8.64,27.59,40.0-50.0
40.0,638.0,-2.94,1.79,9.07,3.44,2.01,-7.64,27.6,40.0-50.0
40.0,853.0,0.94,-1.48,9.59,-3.19,0.86,-3.74,27.6,40.0-50.0
40.0,625.0,-0.8,0.63,10.48,1.28,-1.78,0.5,27.6,40.0-50.0
40.0,1344.0,-0.11,-1.51,10.18,-2.34,-0.15,5.94,27.61,40.0-50.0
40.0,2173.0,-1.4,0.27,9.61,-0.6,-0.16,5.63,27.59,40.0-50.0
40.0,1973.0,1.09,0.19,10.75,-1.1,-4.22,9.02,27.57,40.0-50.0
40.0,1283.0,-1.71,0.11,9.37,0.62,0.56,1.88,27.59,40.0-50.0
40.0,2306.0,0.51,0.49,10.9,-0.87,-2.69,-0.05,27.58,40.0-50.0
40.0,1457.0,-0.88,-0.47,9.44,-0.31,3.73,-5.65,27.58,40.0-50.0
40.0,1662.0,0.52,0.71,10.27,0.9,-3.62,-5.91,27.57,40.0-50.0
40.0,1154.0,-1.06,-0.75,9.79,-0.72,1.72,-6.33,27.6,40.0-50.0
40.0,723.0,-0.78,0.69,9.58,1.41,0.22,-2.01,27.59,40.0-50.0
40.0,1728.0,0.34,0.16,9.42,-0.91,0.33,1.97,27.58,40.0-50.0
40.0,1773.0,-1.45,-0.17,9.35,0.09,2.16,4.26,27.59,40.0-50.0
40.0,2055.0,-0.0,0.47,9.7,-0.91,-0.65,6.88,27.59,40.0-50.0
40.0,1328.0,-1.09,-0.33,9.5,-1.47,3.47,4.61,27.57,40.0-50.0
40.0,1696.0,-0.2,0.22,10.13,0.64,-2.17,2.01,27.58,40.0-50.0
40.0,1616.0,0.59,0.63,9.89,-0.58,-1.14,-0.34,27.59,40.0-50.0
40.0,1296.0,-0.84,-0.39,9.56,-0.39,1.26,-5.39,27.58,40.0-50.0
40.0,1350.0,-0.19,0.21,9.7,-0.01,-0.92,-6.41,27.6,40.0-50.0
40.0,1466.0,-0.26,0.41,10.02,0.01,0.16,-4.06,27.59,40.0-50.0
40.0,1902.0,-0.66,-0.4,10.1,0.44,-0.68,-2.21,27.61,40.0-50.0
40.0,944.0,-0.43,0.13,10.05,-0.25,-2.08,1.72,27.59,40.0-50.0
40.0,1986.0,-0.85,-0.58,9.74,-1.67,0.45,5.46,27.61,40.0-50.0
40.0,1687.0,-0.46,0.09,9.89,0.15,0.39,5.77,27.61,40.0-50.0
40.0,1373.0,-0.24,0.29,10.2,-0.13,-1.96,3.92,27.59,40.0-50.0
40.0,2176.0,0.09,0.0,10.07,-0.84,-1.41,2.14,27.57,40.0-50.0
40.0,1642.0,-0.2,0.11,9.94,0.7,0.94,-2.79,27.57,40.0-50.0
40.0,1744.0,-0.86,0.22,9.56,0.19,0.21,-5.33,27.59,40.0-50.0
40.0,1402.0,0.28,0.26,10.2,0.15,-1.73,-4.47,27.58,40.0-50.0
40.0,1776.0,-0.42,-0.06,9.94,0.32,0.59,-3.17,27.59,40.0-50.0
40.0,1771.0,-0.75,-0.14,9.78,-0.02,-0.21,-1.13,27.6,40.0-50.0
40.0,1535.0,-0.4,0.02,9.74,-0.26,-0.86,1.72,27.59,40.0-50.0
40.0,1262.0,-0.03,-0.25,9.67,-0.83,0.92,5.1,27.6,40.0-50.0
40.0,1047.0,-0.78,-0.3,9.42,-0.78,1.4,4.32,27.58,40.0-50.0
40.0,1074.0,-0.5,0.32,9.83,0.42,-0.63,2.61,27.59,40.0-50.0
40.0,1074.0,0.1,0.42,9.88,0.5,-0.65,1.56,27.6,40.0-50.0
40.0,1322.0,-0.13,0.07,10.03,-0.23,0.31,-1.8,27.58,40.0-50.0
40.0,1311.0,-0.64,-0.13,9.61,0.21,0.79,-5.13,27.57,40.0-50.0
40.0,1177.0,-0.62,0.13,9.78,0.71,-0.45,-5.02,27.59,40.0-50.0
40.0,1600.0,0.05,0.17,9.75,0.39,-0.54,-2.94,27.59,40.0-50.0
40.0,1428.0,-0.22,-0.2,9.85,-0.89,0.98,0.03,27.59,40.0-50.0
40.0,1203.0,-0.93,-0.44,9.65,-0.87,0.98,2.15,27.58,40.0-50.0
40.0,1125.0,-0.59,-0.05,9.61,-0.4,-0.31,3.86,27.59,40.0-50.0
40.0,1681.0,0.02,0.21,9.89,-0.19,-1.05,4.87,27.58,40.0-50.0
40.0,1504.0,-0.04,0.03,9.84,-0.86,0.77,3.43,27.59,40.0-50.0
40.0,1680.0,-0.66,-0.15,9.69,-0.25,1.49,-0.24,27.59,40.0-50.0
40.0,1840.0,-0.69,0.1,9.62,0.91,0.07,-3.62,27.6,40.0-50.0
40.0,737.0,-0.13,0.38,9.98,1.0,-1.7,-4.24,27.57,40.0-50.0
40.0,1431.0,0.25,0.12,9.99,0.1,-0.33,-3.68,27.6,40.0-50.0
40.0,1008.0,-0.51,-0.17,9.83,-0.49,1.14,-1.83,27.59,40.0-50.0
40.0,1064.0,-1.12,-0.35,9.65,-0.42,0.07,0.21,27.59,40.0-50.0
40.0,1535.0,-0.73,0.01,9.49,0.12,-0.16,2.04,27.6,40.0-50.0
40.0,1669.0,0.18,0.44,9.92,0.15,-0.73,4.59,27.59,40.0-50.0
40.0,1265.0,0.02,0.34,9.95,-0.42,0.63,4.76,27.58,40.0-50.0
40.0,1184.0,-0.63,0.12,9.94,-0.84,0.91,2.24,27.58,40.0-50.0
40.0,977.0,-0.98,-0.18,9.41,-0.28,0.83,-0.4,27.59,40.0-50.0
40.0,1834.0,-0.51,0.13,9.59,0.9,-0.92,-3.34,27.59,40.0-50.0
40.0,2374.0,0.3,0.37,9.91,1.2,-0.13,-4.09,27.6,40.0-50.0
40.0,934.0,-0.26,0.15,9.83,0.32,1.33,-2.91,27.58,40.0-50.0
40.0,1164.0,-0.77,-0.2,9.72,-0.42,1.43,-1.6,27.58,40.0-50.0
40.0,1305.0,-0.95,-0.08,9.49,0.18,0.24,1.27,27.59,40.0-50.0
40.0,1634.0,-0.32,0.07,9.86,0.36,-1.5,3.14,27.59,40.0-50.0
40.0,1101.0,-0.08,0.13,9.8,-0.22,-0.59,3.46,27.58,40.0-50.0
40.0,1503.0,0.19,0.29,10.02,-0.02,0.25,3.27,27.58,40.0-50.0
40.0,999.0,-0.57,0.33,9.75,-0.26,1.24,1.77,27.6,40.0-50.0
40.0,287.0,-0.82,0.1,9.62,-0.43,0.01,-0.63,27.59,40.0-50.0
40.0,1030.0,-0.31,-0.09,9.82,-0.1,-1.02,-2.96,27.59,40.0-50.0
40.0,1415.0,0.09,-0.01,9.99,0.5,-0.73,-3.74,27.59,40.0-50.0
40.0,1706.0,-0.25,-0.19,9.91,0.13,0.25,-3.81,27.59,40.0-50.0
40.0,1698.0,-0.78,-0.13,9.71,-0.04,1.0,-1.6,27.58,40.0-50.0
40.0,1182.0,-0.81,0.02,9.61,0.01,0.16,1.74,27.57,40.0-50.0
40.0,1906.0,-0.43,-0.01,9.72,-0.36,-0.54,3.52,27.59,40.0-50.0
40.0,542.0,-0.09,0.1,9.85,-0.46,-0.51,4.61,27.59,40.0-50.0
40.0,1307.0,-0.23,0.23,9.81,-0.17,0.34,3.39,27.57,40.0-50.0
40.0,1201.0,-0.69,0.27,9.75,0.12,0.43,0.38,27.6,40.0-50.0
40.0,1600.0,-0.55,0.12,9.65,0.18,0.05,-1.88,27.58,40.0-50.0
40.0,1222.0,-0.34,0.17,9.81,0.54,-0.54,-3.77,27.58,40.0-50.0
40.0,847.0,-0.28,0.12,9.76,0.27,0.21,-3.92,27.6,40.0-50.0
40.0,1267.0,-0.53,0.06,9.79,-0.13,0.53,-1.89,27.57,40.0-50.0
40.0,1393.0,-0.63,-0.17,9.59,-0.33,0.97,-0.18,27.57,40.0-50.0
40.0,1073.0,-0.59,-0.18,9.75,-0.65,-0.28,2.5,27.58,40.0-50.0
40.0,2320.0,-0.24,-0.06,9.8,-0.28,-0.6,3.91,27.6,40.0-50.0
40.0,1776.0,-0.13,-0.02,9.9,-0.17,-0.25,3.2,27.59,40.0-50.0
40.0,1087.0,-0.3,0.03,9.86,-0.2,0.31,1.88,27.58,40.0-50.0
40.0,1439.0,-0.5,0.29,9.75,0.57,0.24,-0.49,27.59,40.0-50.0
40.0,1559.0,-0.46,0.14,9.79,0.57,-0.48,-2.64,27.58,40.0-50.0
40.0,1075.0,-0.35,0.05,9.87,0.15,-0.36,-3.46,27.6,40.0-50.0
40.0,1505.0,-0.28,0.15,9.83,0.28,-0.01,-2.73,27.62,40.0-50.0
40.0,1712.0,-0.53,-0.06,9.75,-0.25,0.45,-1.02,27.6,40.0-50.0
40.0,911.0,-0.63,-0.02,9.66,-0.66,0.33,1.33,27.57,40.0-50.0
40.0,1224.0,-0.38,0.02,9.82,-0.6,-0.39,3.01,27.58,40.0-50.0
40.0,1806.0,-0.26,-0.2,9.75,-0.8,-0.37,3.1,27.59,40.0-50.0
40.0,2166.0,-0.23,-0.04,9.73,-0.4,0.07,2.29,27.57,40.0-50.0
40.0,1264.0,-0.43,0.15,9.65,0.38,0.28,0.46,27.59,40.0-50.0
40.0,1685.0,-0.49,0.06,9.75,0.39,-0.01,-1.57,27.59,40.0-50.0
40.0,1456.0,-0.4,0.11,9.73,0.54,0.07,-2.56,27.58,40.0-50.0
40.0,1574.0,-0.37,0.16,9.76,0.61,-0.1,-2.73,27.58,40.0-50.0
40.0,907.0,-0.49,-0.01,9.78,0.09,-0.02,-1.74,27.59,40.0-50.0
40.0,1841.0,-0.54,-0.01,9.75,-0.37,0.1,0.32,27.58,40.0-50.0
40.0,1765.0,-0.46,0.16,9.78,-0.36,0.11,1.85,27.59,40.0-50.0
40.0,1334.0,-0.34,0.09,9.8,-0.69,-0.28,3.01,27.57,40.0-50.0
40.0,1277.0,-0.23,0.09,9.84,-0.69,-0.19,2.93,27.58,40.0-50.0
40.0,1082.0,-0.37,0.02,9.79,-0.58,-0.08,1.34,27.6,40.0-50.0
40.0,1328.0,-0.3,0.07,9.75,-0.11,0.22,-0.02,27.58,40.0-50.0
40.0,1314.0,-0.48,0.05,9.72,0.28,-0.02,-1.89,27.59,40.0-50.0
40.0,1082.0,-0.39,-0.07,9.74,0.51,-0.15,-2.98,27.58,40.0-50.0
40.0,1119.0,-0.33,-0.11,9.88,0.45,-0.07,-2.62,27.6,40.0-50.0
40.0,1387.0,-0.36,-0.01,9.75,0.59,0.02,-1.48,27.59,40.0-50.0
40.0,1391.0,-0.49,0.09,9.81,0.25,0.14,0.52,27.59,40.0-50.0
40.0,1502.0,-0.52,0.02,9.73,-0.3,-0.05,2.24,27.6,40.0-50.0
40.0,1690.0,-0.37,0.24,9.8,-0.42,-0.1,3.14,27.57,40.0-50.0
40.0,1473.0,-0.27,0.04,9.9,-0.84,-0.22,2.64,27.59,40.0-50.0
40.0,1661.0,-0.35,0.23,9.71,-0.6,0.18,1.36,27.56,40.0-50.0
40.0,821.0,-0.37,0.25,9.71,-0.2,0.1,-0.66,27.6,40.0-50.0
40.0,1723.0,-0.37,-0.13,9.84,-0.26,-0.18,-2.49,27.57,40.0-50.0
40.0,896.0,-0.37,0.0,9.64,0.22,0.1,-2.82,27.58,40.0-50.0
40.0,884.0,-0.34,-0.2,9.83,0.28,0.01,-2.41,27.57,40.0-50.0
40.0,1167.0,-0.46,-0.23,9.79,0.1,0.18,-0.78,27.59,40.0-50.0
40.0,1842.0,-0.5,-0.22,9.66,-0.11,0.16,1.05,27.58,40.0-50.0
40.0,1840.0,-0.39,0.06,9.75,0.41,-0.08,2.4,27.6,40.0-50.0
40.0,1690.0,-0.35,0.2,9.74,0.19,0.02,3.04,27.58,40.0-50.0
40.0,1145.0,-0.3,0.27,9.77,-0.2,-0.05,2.3,27.58,40.0-50.0
40.0,1454.0,-0.38,0.2,9.84,-0.34,-0.05,0.49,27.6,40.0-50.0
40.0,1631.0,-0.34,0.32,9.7,0.07,-0.04,-0.85,27.57,40.0-50.0
40.0,704.0,-0.43,-0.01,9.77,-0.49,-0.07,-2.47,27.59,40.0-50.0
40.0,2058.0,-0.39,-0.09,9.76,-0.39,-0.1,-2.69,27.6,40.0-50.0
40.0,1600.0,-0.39,-0.1,9.87,-0.19,-0.1,-2.01,27.59,40.0-50.0
40.0,1435.0,-0.44,-0.32,9.8,-0.62,-0.1,-0.72,27.58,40.0-50.0
40.0,956.0,-0.43,-0.19,9.72,-0.26,0.04,1.19,27.57,40.0-50.0
40.0,1443.0,-0.38,0.09,9.74,0.44,-0.07,2.44,27.58,40.0-50.0
40.0,1506.0,-0.42,-0.2,9.79,-0.55,-0.19,2.3,27.58,40.0-50.0
40.0,769.0,-0.28,0.21,9.66,0.33,0.14,2.12,27.59,40.0-50.0
40.0,1520.0,-0.37,0.34,9.76,0.59,0.19,0.85,27.59,40.0-50.0
40.0,1239.0,-0.41,0.09,9.82,-0.07,-0.16,-0.9,27.58,40.0-50.0
40.0,1292.0,-0.37,0.32,9.68,0.36,0.1,-1.4,27.58,40.0-50.0
40.0,1915.0,-0.37,0.23,9.76,0.24,0.02,-1.8,27.58,40.0-50.0
40.0,1649.0,-0.44,-0.15,9.82,-0.68,-0.1,-1.43,27.59,40.0-50.0
40.0,1856.0,-0.42,-0.14,9.73,-0.71,0.14,-0.14,27.59,40.0-50.0
40.0,1648.0,-0.42,-0.08,9.8,-0.28,0.02,0.78,27.6,40.0-50.0
40.0,1156.0,-0.41,-0.21,9.78,-0.66,-0.13,1.36,27.56,40.0-50.0
40.0,1500.0,-0.37,-0.11,9.75,-0.25,0.01,1.63,27.55,40.0-50.0
40.0,1535.0,-0.33,0.09,9.75,0.38,0.07,1.25,27.6,40.0-50.0
40.0,945.0,-0.36,-0.04,9.79,-0.05,-0.05,0.4,27.59,40.0-50.0
40.0,2070.0,-0.37,0.13,9.74,0.38,0.07,-0.76,27.58,40.0-50.0
40.0,1531.0,-0.4,0.2,9.72,0.68,0.07,-1.42,27.58,40.0-50.0
40.0,705.0,-0.37,0.1,9.83,0.22,-0.04,-1.46,27.57,40.0-50.0
40.0,1908.0,-0.38,0.11,9.79,0.1,0.1,-1.05,27.57,40.0-50.0
40.0,1968.0,-0.44,0.13,9.76,-0.08,0.13,0.05,27.57,40.0-50.0
40.0,1399.0,-0.44,-0.01,9.74,-0.55,-0.05,0.96,27.57,40.0-50.0
40.0,1178.0,-0.41,-0.05,9.74,-0.71,-0.13,1.6,27.58,40.0-50.0
40.0,1775.0,-0.35,0.01,9.75,-0.37,-0.05,1.66,27.58,40.0-50.0
40.0,1008.0,-0.32,-0.06,9.8,-0.36,0.01,0.99,27.59,40.0-50.0
40.0,1308.0,-0.38,-0.04,9.79,-0.13,0.02,-0.08,27.58,40.0-50.0
40.0,1344.0,-0.4,-0.01,9.74,0.33,0.04,-1.05,27.57,40.0-50.0
40.0,1698.0,-0.4,-0.03,9.78,0.36,-0.01,-1.42,27.58,40.0-50.0
40.0,1721.0,-0.39,-0.01,9.74,0.36,0.02,-1.46,27.58,40.0-50.0
40.0,2000.0,-0.4,0.07,9.73,0.35,0.05,-0.66,27.58,40.0-50.0
40.0,1168.0,-0.45,0.1,9.74,0.09,0.08,0.41,27.6,40.0-50.0
40.0,1664.0,-0.42,0.1,9.77,-0.16,-0.02,1.04,27.57,40.0-50.0
40.0,2031.0,-0.39,0.13,9.73,-0.33,-0.04,1.63,27.57,40.0-50.0
40.0,1457.0,-0.36,0.12,9.82,-0.46,0.02,1.4,27.59,40.0-50.0
40.0,1554.0,-0.38,0.09,9.76,-0.48,0.02,0.5,27.57,40.0-50.0
40.0,1232.0,-0.35,0.04,9.77,-0.33,0.01,-0.2,27.57,40.0-50.0
40.0,986.0,-0.39,-0.01,9.77,-0.13,0.02,-1.07,27.55,40.0-50.0
40.0,1555.0,-0.4,-0.11,9.76,0.12,-0.02,-1.54,27.56,40.0-50.0
40.0,1175.0,-0.4,-0.09,9.84,0.25,0.02,-1.16,27.57,40.0-50.0
40.0,1898.0,-0.43,-0.06,9.74,0.24,0.1,-0.56,27.57,40.0-50.0
40.0,1013.0,-0.38,-0.0,9.75,0.21,0.07,0.47,27.56,40.0-50.0
40.0,1206.0,-0.4,0.1,9.75,0.09,-0.08,1.31,27.56,40.0-50.0
40.0,1682.0,-0.37,0.16,9.78,-0.04,-0.07,1.62,27.57,40.0-50.0
40.0,986.0,-0.39,0.17,9.74,-0.17,-0.04,1.4,27.58,40.0-50.0
40.0,1347.0,-0.37,0.18,9.74,-0.3,-0.04,0.53,27.56,40.0-50.0
40.0,1414.0,-0.38,0.1,9.78,-0.34,0.04,-0.53,27.57,40.0-50.0
40.0,1687.0,-0.38,0.04,9.77,-0.25,-0.01,-1.27,27.58,40.0-50.0
40.0,1143.0,-0.39,-0.04,9.78,-0.22,-0.05,-1.45,27.56,40.0-50.0
40.0,1838.0,-0.37,-0.12,9.74,-0.08,0.02,-1.07,27.59,40.0-50.0
40.0,1334.0,-0.41,-0.16,9.75,-0.05,0.04,-0.21,27.59,40.0-50.0
40.0,1159.0,-0.43,-0.11,9.75,0.06,-0.1,0.82,27.57,40.0-50.0
40.0,1296.0,-0.42,-0.03,9.76,0.1,0.04,1.37,27.57,40.0-50.0
40.0,1989.0,-0.37,0.07,9.76,0.15,-0.02,1.6,27.55,40.0-50.0
40.0,590.0,-0.35,0.16,9.76,0.12,-0.05,1.11,27.53,40.0-50.0
40.0,1628.0,-0.38,0.21,9.74,0.07,-0.01,0.15,27.57,40.0-50.0
40.0,1651.0,-0.39,0.16,9.75,-0.07,-0.02,-0.58,27.57,40.0-50.0
40.0,1723.0,-0.39,0.1,9.77,-0.07,0.01,-1.34,27.57,40.0-50.0
40.0,1862.0,-0.38,0.04,9.76,-0.19,0.1,-1.43,27.57,40.0-50.0
40.0,1825.0,-0.4,-0.03,9.75,-0.28,0.01,-0.84,27.57,40.0-50.0
40.0,1015.0,-0.39,-0.1,9.8,-0.34,0.07,-0.17,27.57,40.0-50.0
40.0,993.0,-0.41,-0.12,9.73,-0.31,-0.01,0.76,27.58,40.0-50.0
40.0,1375.0,-0.36,-0.05,9.72,-0.16,-0.05,1.46,27.55,40.0-50.0
40.0,1370.0,-0.34,0.02,9.75,0.01,-0.01,1.42,27.58,40.0-50.0
40.0,1175.0,-0.37,0.05,9.78,0.13,0.02,1.01,27.58,40.0-50.0
40.0,1776.0,-0.37,0.11,9.78,0.21,0.02,0.05,27.56,40.0-50.0
40.0,1389.0,-0.37,0.15,9.79,0.28,0.05,-0.87,27.59,40.0-50.0
40.0,448.0,-0.4,0.14,9.74,0.15,0.08,-1.34,27.58,40.0-50.0
40.0,1791.0,-0.41,0.13,9.74,0.01,-0.01,-1.33,27.58,40.0-50.0
40.0,1535.0,-0.4,0.06,9.77,-0.22,0.04,-0.69,27.56,40.0-50.0
40.0,1789.0,-0.41,-0.01,9.74,-0.39,0.07,0.21,27.59,40.0-50.0
40.0,1344.0,-0.4,-0.03,9.77,-0.45,-0.05,1.08,27.59,40.0-50.0
40.0,1680.0,-0.38,-0.03,9.76,-0.42,-0.1,1.42,27.58,40.0-50.0
40.0,705.0,-0.38,-0.04,9.78,-0.25,-0.02,1.28,27.58,40.0-50.0
40.0,1280.0,-0.36,-0.03,9.77,-0.11,0.01,0.67,27.59,40.0-50.0
40.0,1754.0,-0.36,-0.0,9.8,0.1,0.11,-0.34,27.57,40.0-50.0
40.0,1584.0,-0.37,0.03,9.76,0.22,0.01,-0.89,27.59,40.0-50.0
40.0,2240.0,-0.39,0.04,9.77,0.32,0.02,-1.25,27.58,40.0-50.0
40.0,918.0,-0.42,0.09,9.72,0.33,0.02,-1.04,27.55,40.0-50.0
40.0,1193.0,-0.41,0.1,9.8,0.07,0.02,-0.31,27.58,40.0-50.0
40.0,1093.0,-0.44,0.08,9.8,-0.08,0.07,0.31,27.58,40.0-50.0
40.0,1438.0,-0.39,0.08,9.78,-0.34,-0.01,1.11,27.57,40.0-50.0
40.0,1486.0,-0.36,0.07,9.77,-0.45,-0.08,1.43,27.56,40.0-50.0
40.0,1119.0,-0.34,0.04,9.75,-0.45,-0.07,1.04,27.57,40.0-50.0
40.0,2236.0,-0.37,0.01,9.79,-0.34,-0.02,0.58,27.56,40.0-50.0
40.0,432.0,-0.4,-0.01,9.74,-0.16,-0.01,-0.4,27.59,40.0-50.0
40.0,1669.0,-0.36,-0.03,9.8,0.07,0.08,-1.13,27.55,40.0-50.0
40.0,785.0,-0.4,-0.04,9.81,0.22,0.04,-1.21,27.56,40.0-50.0
40.0,1727.0,-0.39,-0.06,9.76,0.25,0.08,-0.96,27.57,40.0-50.0
40.0,1535.0,-0.37,-0.01,9.75,0.18,-0.05,-0.21,27.58,40.0-50.0
40.0,1329.0,-0.41,0.04,9.79,0.12,0.04,0.72,27.56,40.0-50.0
40.0,1822.0,-0.39,0.13,9.75,-0.05,0.04,1.27,27.6,40.0-50.0
40.0,1767.0,-0.39,0.14,9.76,-0.11,-0.05,1.37,27.58,40.0-50.0
40.0,1655.0,-0.37,0.14,9.76,-0.26,-0.04,1.01,27.56,40.0-50.0
40.0,1381.0,-0.34,0.11,9.79,-0.31,-0.01,0.12,27.56,40.0-50.0
40.0,1456.0,-0.38,0.04,9.77,-0.25,0.07,-0.7,27.59,40.0-50.0
40.0,1467.0,-0.39,-0.02,9.76,-0.2,0.01,-1.11,27.54,40.0-50.0
40.0,782.0,-0.37,-0.06,9.74,-0.08,0.04,-1.19,27.56,40.0-50.0
40.0,1584.0,-0.4,-0.08,9.78,0.01,-0.04,-0.7,27.57,40.0-50.0
40.0,1712.0,-0.38,-0.07,9.74,0.06,0.05,0.2,27.58,40.0-50.0
40.0,1018.0,-0.41,-0.04,9.75,0.04,0.02,0.75,27.58,40.0-50.0
40.0,1325.0,-0.36,0.05,9.74,0.16,0.01,1.31,27.55,40.0-50.0
40.0,912.0,-0.36,0.12,9.79,0.09,-0.11,1.3,27.57,40.0-50.0
40.0,1065.0,-0.4,0.17,9.75,-0.04,-0.04,0.67,27.58,40.0-50.0
40.0,1072.0,-0.35,0.17,9.75,-0.1,-0.02,0.09,27.57,40.0-50.0
40.0,1520.0,-0.37,0.12,9.77,-0.13,0.02,-0.76,27.56,40.0-50.0
40.0,1213.0,-0.39,0.06,9.76,-0.19,-0.02,-1.22,27.57,40.0-50.0
40.0,1268.0,-0.37,-0.02,9.76,-0.23,-0.01,-1.07,27.58,40.0-50.0
40.0,1567.0,-0.41,-0.06,9.77,-0.25,0.04,-0.7,27.59,40.0-50.0
40.0,1074.0,-0.41,-0.08,9.77,-0.23,-0.01,0.21,27.56,40.0-50.0
40.0,1120.0,-0.4,-0.09,9.75,-0.16,0.02,0.95,27.58,40.0-50.0
40.0,767.0,-0.4,-0.03,9.76,-0.04,-0.07,1.31,27.57,40.0-50.0
