Speed,Voice,Acceleration X,Acceleration Y,Acceleration Z,Gyro X,Gyro Y,Gyro Z,Temperature,Speed_Range
50.0,1969.0,-0.12,-0.04,9.78,0.15,-0.0,0.11,17.7,50.0-60.0
50.0,1307.0,-0.11,-0.02,9.82,0.21,0.01,-0.07,17.68,50.0-60.0
50.0,896.0,-0.1,0.02,9.79,0.25,-0.02,-0.21,17.65,50.0-60.0
50.0,895.0,-0.13,0.02,9.82,0.21,0.05,-0.28,17.66,50.0-60.0
50.0,835.0,-0.1,-0.0,9.8,0.24,-0.02,-0.13,17.65,50.0-60.0
50.0,678.0,-0.1,-0.02,9.79,0.15,-0.03,0.02,17.69,50.0-60.0
50.0,843.0,-0.11,-0.07,9.81,0.07,0.01,0.1,17.68,50.0-60.0
50.0,865.0,-0.11,-0.05,9.77,0.06,-0.0,0.16,17.66,50.0-60.0
50.0,1162.0,-0.09,-0.03,9.81,0.16,-0.06,0.13,17.66,50.0-60.0
50.0,1491.0,-0.1,-0.03,9.81,0.12,-0.02,0.04,17.67,50.0-60.0
50.0,1535.0,-0.13,-0.02,9.79,0.27,0.01,-0.14,17.69,50.0-60.0
50.0,1979.0,-0.13,-0.03,9.82,0.21,-0.03,-0.18,17.68,50.0-60.0
50.0,1922.0,-0.12,-0.01,9.83,0.18,-0.02,-0.11,17.67,50.0-60.0
50.0,2185.0,-0.12,0.01,9.82,0.12,-0.03,-0.07,17.68,50.0-60.0
50.0,1990.0,-0.12,-0.03,9.78,0.15,0.03,-0.01,17.69,50.0-60.0
50.0,2032.0,-0.13,-0.01,9.78,0.07,-0.02,0.13,17.67,50.0-60.0
50.0,1621.0,-0.11,-0.03,9.84,0.1,-0.02,0.05,17.64,50.0-60.0
50.0,1200.0,-0.1,-0.01,9.79,0.13,-0.03,0.04,17.69,50.0-60.0
50.0,1462.0,-0.17,-0.02,9.8,0.09,0.03,-0.11,17.69,50.0-60.0
50.0,1450.0,-0.11,-0.02,9.78,0.15,-0.03,-0.04,17.67,50.0-60.0
50.0,1438.0,-0.11,-0.0,9.81,0.1,0.11,-0.01,17.67,50.0-60.0
50.0,1435.0,-0.09,-0.01,9.79,0.16,-0.0,0.13,17.68,50.0-60.0
50.0,1369.0,-0.1,-0.01,9.83,0.21,-0.0,0.01,17.66,50.0-60.0
50.0,1239.0,-0.12,-0.02,9.79,0.12,-0.0,-0.07,17.68,50.0-60.0
50.0,1459.0,-0.1,-0.02,9.78,0.16,-0.0,-0.16,17.7,50.0-60.0
50.0,1404.0,-0.12,-0.02,9.77,0.16,-0.11,-0.13,17.66,50.0-60.0
50.0,1475.0,-0.13,0.02,9.82,0.09,-0.02,-0.07,17.65,50.0-60.0
50.0,1515.0,-0.12,-0.03,9.77,0.12,-0.05,0.01,17.68,50.0-60.0
50.0,1309.0,-0.11,-0.03,9.77,0.06,0.01,0.1,17.68,50.0-60.0
50.0,1357.0,-0.12,-0.02,9.79,0.1,-0.0,0.05,17.68,50.0-60.0
50.0,1454.0,-0.11,-0.01,9.82,0.16,0.03,0.02,17.68,50.0-60.0
50.0,1527.0,-0.12,-0.0,9.83,0.21,-0.0,-0.07,17.7,50.0-60.0
50.0,1483.0,-0.13,-0.02,9.81,0.13,-0.02,-0.04,17.67,50.0-60.0
50.0,1211.0,-0.14,-0.0,9.8,0.1,0.09,-0.02,17.66,50.0-60.0
50.0,1342.0,-0.1,-0.03,9.81,0.12,-0.02,-0.05,17.66,50.0-60.0
50.0,1632.0,-0.13,-0.03,9.81,0.09,0.01,-0.07,17.67,50.0-60.0
50.0,1630.0,-0.12,-0.02,9.8,0.13,0.05,-0.08,17.67,50.0-60.0
50.0,1565.0,-0.18,0.04,9.77,0.18,0.06,-0.08,17.64,50.0-60.0
50.0,1303.0,-0.19,0.07,9.86,0.09,-0.05,0.24,17.67,50.0-60.0
50.0,1899.0,-0.1,-0.02,9.8,0.15,-0.46,0.8,17.68,50.0-60.0
50.0,1665.0,-0.04,0.05,9.71,0.12,0.32,0.74,17.65,50.0-60.0
50.0,1479.0,-0.15,-0.02,9.89,-0.04,-0.15,0.57,17.67,50.0-60.0
50.0,1104.0,-0.09,0.05,9.87,0.47,-0.26,-0.22,17.69,50.0-60.0
50.0,985.0,-0.13,-0.08,9.74,0.5,0.14,-1.41,17.68,50.0-60.0
50.0,999.0,-0.16,0.19,9.77,0.67,0.26,-1.9,17.67,50.0-60.0
50.0,1763.0,-0.16,0.12,9.95,0.54,-0.17,-1.93,17.68,50.0-60.0
50.0,1651.0,-0.23,-0.02,9.76,0.18,0.01,-0.39,17.68,50.0-60.0
50.0,1653.0,-0.07,-0.19,9.61,-0.46,-0.2,1.93,17.66,50.0-60.0
50.0,1856.0,-0.12,0.15,9.87,-0.4,-0.14,3.11,17.67,50.0-60.0
50.0,1074.0,-0.22,-0.0,9.95,-0.34,-0.5,3.27,17.68,50.0-60.0
50.0,1139.0,0.12,-0.34,9.86,0.04,-0.4,0.45,17.69,50.0-60.0
50.0,1315.0,-0.09,-0.34,9.53,0.65,1.02,-2.71,17.68,50.0-60.0
50.0,1490.0,-0.13,0.3,10.16,1.31,-0.93,-3.4,17.67,50.0-60.0
50.0,1065.0,-0.15,-0.06,9.84,1.11,-0.49,-3.88,17.68,50.0-60.0
50.0,910.0,-0.14,-0.13,9.56,0.36,0.52,-2.37,17.69,50.0-60.0
50.0,1879.0,-0.12,-0.07,9.72,-0.49,0.64,0.43,17.69,50.0-60.0
50.0,1396.0,-0.26,0.07,9.81,-0.71,-0.29,2.39,17.66,50.0-60.0
50.0,1062.0,-0.1,-0.15,9.82,-0.83,-0.34,3.65,17.68,50.0-60.0
50.0,1377.0,0.08,-0.45,9.85,-0.75,-0.35,2.91,17.67,50.0-60.0
50.0,1399.0,-0.12,-0.11,9.59,0.35,0.69,0.79,17.69,50.0-60.0
50.0,1322.0,-0.03,-0.16,10.01,0.76,-0.31,-0.83,17.67,50.0-60.0
50.0,1466.0,-0.19,0.19,9.76,1.51,0.37,-2.68,17.65,50.0-60.0
50.0,1657.0,-0.03,0.17,9.77,1.06,-0.08,-3.06,17.65,50.0-60.0
50.0,1502.0,-0.16,0.13,9.76,0.33,0.12,-1.93,17.68,50.0-60.0
50.0,1727.0,-0.16,0.27,9.82,0.15,-0.28,-0.45,17.68,50.0-60.0
50.0,1425.0,-0.13,0.1,9.87,-0.66,-0.5,1.7,17.69,50.0-60.0
50.0,1730.0,-0.19,-0.22,9.81,-1.23,-0.05,2.82,17.7,50.0-60.0
50.0,1609.0,-0.1,-0.05,9.92,-0.54,-0.35,2.68,17.68,50.0-60.0
50.0,1360.0,-0.0,-0.43,9.79,-0.34,0.05,1.5,17.67,50.0-60.0
50.0,1553.0,-0.07,-0.37,9.69,0.45,0.72,-0.57,17.67,50.0-60.0
50.0,1616.0,-0.14,-0.26,9.63,0.91,0.69,-2.27,17.68,50.0-60.0
50.0,1839.0,-0.16,-0.12,9.79,0.88,0.17,-2.85,17.68,50.0-60.0
50.0,2014.0,-0.08,0.41,9.81,1.05,-0.21,-1.95,17.67,50.0-60.0
50.0,1873.0,-0.07,0.33,9.86,0.25,-0.21,-0.48,17.68,50.0-60.0
50.0,1959.0,-0.16,0.16,9.8,-0.43,-0.11,1.14,17.66,50.0-60.0
50.0,1737.0,-0.24,0.06,9.86,-0.86,-0.12,2.14,17.67,50.0-60.0
50.0,1601.0,-0.17,-0.03,9.68,-0.88,0.08,2.2,17.68,50.0-60.0
50.0,1859.0,-0.03,-0.03,9.75,-0.28,-0.05,1.44,17.69,50.0-60.0
50.0,1990.0,0.02,-0.24,9.91,0.21,-0.0,-0.08,17.69,50.0-60.0
50.0,1522.0,-0.15,-0.31,9.83,0.57,0.2,-1.18,17.69,50.0-60.0
50.0,2047.0,-0.16,-0.36,9.76,0.85,0.24,-2.13,17.69,50.0-60.0
50.0,1470.0,-0.15,0.1,9.6,1.31,0.59,-1.76,17.69,50.0-60.0
50.0,1773.0,-0.21,0.25,9.67,0.76,0.15,-0.51,17.68,50.0-60.0
50.0,1639.0,-0.06,0.3,9.76,0.24,-0.08,0.42,17.66,50.0-60.0
50.0,1850.0,-0.02,0.26,9.69,-0.49,0.24,1.32,17.69,50.0-60.0
50.0,1535.0,-0.14,-0.1,9.75,-1.01,-0.31,1.49,17.68,50.0-60.0
50.0,1928.0,-0.22,-0.21,9.88,-0.86,-0.21,0.86,17.67,50.0-60.0
50.0,1358.0,0.07,-0.23,9.98,-0.42,-0.64,0.22,17.69,50.0-60.0
50.0,1319.0,-0.05,-0.2,9.93,0.27,0.21,-0.76,17.69,50.0-60.0
50.0,1636.0,-0.11,-0.11,9.69,0.85,0.38,-1.37,17.67,50.0-60.0
50.0,1067.0,-0.06,-0.1,9.73,0.99,0.08,-1.18,17.69,50.0-60.0
50.0,1074.0,-0.08,-0.01,9.74,0.8,-0.17,-0.77,17.69,50.0-60.0
50.0,944.0,-0.04,0.29,9.62,0.56,-0.0,0.11,17.68,50.0-60.0
50.0,1199.0,-0.21,0.26,9.87,-0.13,-0.17,0.74,17.66,50.0-60.0
50.0,1055.0,-0.33,-0.03,9.85,-0.77,-0.23,1.18,17.67,50.0-60.0
50.0,816.0,-0.3,0.1,9.79,-0.46,-0.08,1.35,17.67,50.0-60.0
50.0,935.0,-0.06,-0.17,9.87,-0.19,0.05,0.82,17.7,50.0-60.0
50.0,938.0,-0.12,-0.1,9.81,0.18,0.24,0.07,17.68,50.0-60.0
50.0,1106.0,-0.21,0.19,9.73,0.64,0.32,-1.17,17.69,50.0-60.0
50.0,1035.0,-0.1,0.17,9.79,0.88,0.34,-1.78,17.7,50.0-60.0
50.0,1049.0,-0.24,0.13,9.71,0.67,-0.29,-1.87,17.69,50.0-60.0
50.0,1105.0,0.11,-0.27,9.96,0.12,-0.43,-0.83,17.7,50.0-60.0
50.0,1014.0,-0.14,-0.14,9.83,0.03,0.15,0.92,17.69,50.0-60.0
50.0,1215.0,-0.16,-0.26,9.9,-0.31,0.12,1.69,17.67,50.0-60.0
50.0,1137.0,-0.32,0.02,9.67,-0.04,0.46,2.11,17.67,50.0-60.0
50.0,823.0,-0.13,0.13,9.79,-0.01,-0.11,1.14,17.69,50.0-60.0
50.0,1195.0,0.04,0.06,9.76,0.19,-0.24,-0.48,17.69,50.0-60.0
50.0,886.0,0.04,-0.01,9.91,0.16,-0.46,-1.32,17.69,50.0-60.0
50.0,1207.0,0.06,-0.01,9.88,0.67,0.58,-1.63,17.69,50.0-60.0
50.0,1136.0,-0.34,0.0,9.65,0.42,0.09,-1.06,17.68,50.0-60.0
50.0,1267.0,-0.13,-0.07,9.83,-0.05,-0.21,-0.3,17.67,50.0-60.0
50.0,1264.0,-0.15,0.12,9.73,0.13,-0.31,0.19,17.7,50.0-60.0
50.0,1486.0,0.03,-0.07,9.78,-0.25,-0.81,0.57,17.67,50.0-60.0
50.0,1346.0,0.12,-0.29,9.87,-0.36,0.15,1.06,17.68,50.0-60.0
50.0,1423.0,-0.21,-0.2,9.74,-0.07,0.85,1.14,17.69,50.0-60.0
50.0,1982.0,-0.4,-0.1,9.89,0.19,0.21,1.03,17.67,50.0-60.0
50.0,1149.0,-0.34,-0.07,9.69,0.44,0.47,-0.27,17.68,50.0-60.0
50.0,1610.0,-0.05,0.13,9.73,0.51,-0.61,-1.47,17.69,50.0-60.0
50.0,1459.0,0.18,0.3,9.99,0.7,-0.44,-1.59,17.68,50.0-60.0
50.0,1312.0,0.08,-0.14,9.85,0.09,0.69,-1.12,17.68,50.0-60.0
50.0,1200.0,-0.43,-0.15,9.6,-0.05,0.96,0.02,17.67,50.0-60.0
50.0,1599.0,-0.21,-0.09,9.85,-0.13,-0.28,0.95,17.69,50.0-60.0
50.0,1818.0,-0.35,0.14,9.8,-0.26,-0.76,1.0,17.68,50.0-60.0
50.0,2042.0,0.09,-0.27,9.9,-0.34,-1.13,0.54,17.68,50.0-60.0
50.0,1377.0,0.21,-0.58,9.88,-0.43,0.41,-0.02,17.69,50.0-60.0
50.0,1364.0,-0.22,-0.33,9.83,0.15,1.14,-0.24,17.69,50.0-60.0
50.0,1945.0,-0.45,0.21,9.7,0.86,0.38,-0.47,17.72,50.0-60.0
50.0,1466.0,-0.58,0.13,9.66,0.67,-0.03,-0.76,17.68,50.0-60.0
50.0,1744.0,0.07,0.02,9.78,0.53,-1.05,-0.92,17.68,50.0-60.0
50.0,1581.0,0.34,-0.2,9.89,-0.2,-0.11,-0.37,17.7,50.0-60.0
50.0,1403.0,-0.19,-0.19,9.78,-0.39,1.45,0.65,17.68,50.0-60.0
50.0,1283.0,-0.56,0.05,9.86,-0.43,0.58,1.27,17.68,50.0-60.0
50.0,2073.0,-0.58,0.16,9.74,-0.02,-0.37,0.79,17.68,50.0-60.0
50.0,2157.0,0.04,-0.02,9.95,0.21,-1.76,0.07,17.68,50.0-60.0
50.0,1643.0,0.53,-0.35,9.97,0.09,0.21,-0.5,17.69,50.0-60.0
50.0,1866.0,-0.0,-0.08,9.76,0.24,1.6,-0.51,17.7,50.0-60.0
50.0,1885.0,-0.63,0.26,9.62,0.57,1.36,-0.48,17.7,50.0-60.0
50.0,1341.0,-0.59,0.3,9.71,0.67,-0.87,-0.51,17.69,50.0-60.0
50.0,2032.0,0.33,0.18,9.92,0.47,-2.24,0.11,17.68,50.0-60.0
50.0,1325.0,0.71,-0.4,10.05,-0.42,-1.13,0.22,17.69,50.0-60.0
50.0,1505.0,0.21,-0.3,9.81,-0.46,2.52,0.71,17.69,50.0-60.0
50.0,1734.0,-0.97,0.13,9.5,0.03,1.63,0.63,17.72,50.0-60.0
50.0,1618.0,-0.73,0.1,9.67,0.12,-1.48,0.01,17.69,50.0-60.0
50.0,1949.0,0.13,0.13,9.72,0.64,-2.56,-0.1,17.71,50.0-60.0
50.0,1280.0,1.12,-0.16,10.15,0.16,-0.72,-0.5,17.68,50.0-60.0
50.0,1415.0,-0.33,-0.35,9.64,0.06,3.31,-0.95,17.67,50.0-60.0
50.0,1582.0,-1.25,-0.5,9.36,-0.2,1.59,-1.05,17.69,50.0-60.0
50.0,1456.0,-0.99,0.19,9.69,0.3,-1.3,-0.45,17.68,50.0-60.0
50.0,1839.0,0.59,0.39,10.0,0.54,-3.54,0.76,17.69,50.0-60.0
50.0,1398.0,1.36,0.54,10.4,0.38,-0.28,1.7,17.7,50.0-60.0
50.0,1195.0,-0.54,0.46,9.86,0.13,2.88,1.23,17.69,50.0-60.0
50.0,974.0,-1.36,-0.45,9.23,-0.6,2.56,-0.36,17.69,50.0-60.0
50.0,1326.0,-0.94,-0.7,9.46,-0.2,-1.79,-0.83,17.7,50.0-60.0
50.0,1421.0,0.76,-0.54,9.98,0.13,-2.56,-0.53,17.69,50.0-60.0
50.0,1680.0,0.94,-0.12,9.99,-0.08,2.2,-0.56,17.7,50.0-60.0
50.0,1653.0,-0.05,0.64,9.91,0.44,3.05,-0.25,17.68,50.0-60.0
50.0,1371.0,-1.4,0.32,9.3,0.25,0.87,-0.76,17.69,50.0-60.0
50.0,1347.0,-0.14,0.16,9.9,0.54,-4.52,0.48,17.69,50.0-60.0
50.0,665.0,1.27,0.2,10.3,0.7,-2.03,1.7,17.69,50.0-60.0
50.0,1126.0,0.57,-0.28,9.84,-0.36,2.27,0.76,17.7,50.0-60.0
50.0,1051.0,-0.8,-0.33,9.4,-0.72,4.52,-0.43,17.69,50.0-60.0
50.0,1503.0,-1.45,-0.7,9.32,-0.51,-0.03,-1.0,17.68,50.0-60.0
50.0,1602.0,0.28,-0.58,10.04,0.06,-3.39,-0.21,17.69,50.0-60.0
50.0,1809.0,1.15,0.57,10.58,1.09,-2.81,1.09,17.69,50.0-60.0
50.0,1430.0,0.72,0.74,10.32,0.76,1.25,0.16,17.69,50.0-60.0
50.0,1217.0,-1.33,0.41,9.55,0.19,2.21,-0.98,17.68,50.0-60.0
50.0,1232.0,-0.8,0.35,9.61,0.77,-3.56,0.24,17.69,50.0-60.0
50.0,642.0,0.16,-0.56,9.58,-0.08,-2.2,0.28,17.69,50.0-60.0
50.0,822.0,0.76,-0.32,9.59,-0.04,1.51,0.66,17.69,50.0-60.0
50.0,592.0,-0.47,-0.33,9.32,-0.62,4.47,-0.76,17.69,50.0-60.0
50.0,1517.0,-1.46,-0.71,8.82,-0.51,1.8,-1.47,17.69,50.0-60.0
50.0,1523.0,0.0,-0.18,10.34,0.03,-3.51,0.14,17.67,50.0-60.0
50.0,1872.0,0.72,0.2,10.59,0.56,-2.29,1.05,17.68,50.0-60.0
50.0,1699.0,0.74,0.58,10.64,0.5,-0.7,0.53,17.71,50.0-60.0
50.0,1439.0,-0.53,0.22,9.74,-0.05,1.59,-0.69,17.7,50.0-60.0
50.0,1337.0,-0.72,0.09,9.28,0.59,-0.49,-0.6,17.7,50.0-60.0
50.0,828.0,-0.11,0.07,9.65,0.56,-0.99,0.8,17.68,50.0-60.0
50.0,916.0,0.22,0.27,9.62,0.42,-0.6,0.94,17.68,50.0-60.0
50.0,785.0,-0.09,0.11,9.4,0.13,1.82,-0.43,17.69,50.0-60.0
50.0,835.0,-0.59,-0.48,9.41,-0.62,1.53,-1.06,17.69,50.0-60.0
50.0,959.0,-0.12,-0.66,9.77,-0.2,0.4,-0.59,17.68,50.0-60.0
50.0,1553.0,-0.17,-0.16,9.57,0.25,0.85,-0.01,17.69,50.0-60.0
50.0,1398.0,0.03,-0.0,9.66,0.01,1.1,-0.79,17.71,50.0-60.0
50.0,1798.0,-0.08,0.2,9.88,0.27,-0.21,-0.47,17.67,50.0-60.0
50.0,1673.0,0.21,-0.04,10.34,-0.01,-1.89,0.24,17.68,50.0-60.0
50.0,1632.0,0.06,0.07,10.25,0.19,-0.6,1.24,17.7,50.0-60.0
50.0,1424.0,-0.14,0.35,10.09,0.18,-0.46,0.92,17.7,50.0-60.0
50.0,1162.0,-0.36,-0.04,9.44,0.1,0.5,-0.28,17.7,50.0-60.0
50.0,1142.0,-0.09,-0.01,9.54,0.42,-0.95,-0.28,17.69,50.0-60.0
50.0,823.0,0.27,0.03,9.86,0.48,0.08,0.22,17.68,50.0-60.0
50.0,1023.0,-0.34,0.22,9.62,0.45,1.28,-0.21,17.68,50.0-60.0
50.0,877.0,-0.83,-0.05,9.51,0.1,1.43,-1.09,17.69,50.0-60.0
50.0,1155.0,-0.36,-0.24,9.53,0.09,-0.7,-0.91,17.69,50.0-60.0
50.0,965.0,0.44,-0.21,9.82,0.22,-0.46,0.19,17.69,50.0-60.0
50.0,1472.0,-0.03,-0.06,9.77,0.04,2.03,0.5,17.69,50.0-60.0
50.0,1255.0,-0.42,0.18,10.0,-0.13,1.33,0.4,17.67,50.0-60.0
50.0,1648.0,-0.73,-0.17,9.85,-0.11,-0.96,-0.07,17.67,50.0-60.0
50.0,1353.0,0.39,-0.26,10.14,-0.05,-2.23,0.57,17.69,50.0-60.0
50.0,1808.0,0.59,0.11,10.11,0.1,0.47,0.65,17.71,50.0-60.0
50.0,1346.0,0.04,0.43,9.81,0.44,1.48,-0.07,17.69,50.0-60.0
50.0,1386.0,-0.9,-0.01,9.54,0.09,0.66,-1.14,17.68,50.0-60.0
50.0,1191.0,-0.12,-0.38,9.91,0.22,-2.59,-0.3,17.69,50.0-60.0
50.0,1291.0,0.6,0.01,10.28,0.3,-1.19,0.94,17.67,50.0-60.0
50.0,1360.0,0.25,0.3,9.69,0.3,1.37,0.48,17.71,50.0-60.0
50.0,1105.0,-0.55,0.09,9.37,0.03,1.95,-0.53,17.7,50.0-60.0
50.0,929.0,-0.56,0.11,9.47,0.59,-1.05,-0.02,17.71,50.0-60.0
50.0,912.0,0.36,0.27,9.98,0.83,-1.48,1.0,17.69,50.0-60.0
50.0,1118.0,0.2,-0.05,9.79,0.33,1.04,0.5,17.72,50.0-60.0
50.0,830.0,-0.57,-0.05,9.55,0.06,2.26,-0.94,17.7,50.0-60.0
50.0,1459.0,-0.74,-0.23,9.35,0.15,0.66,-1.24,17.7,50.0-60.0
50.0,934.0,-0.1,-0.14,9.54,0.45,-0.41,-0.05,17.7,50.0-60.0
50.0,1780.0,0.41,0.01,10.08,0.13,-0.29,0.57,17.68,50.0-60.0
50.0,1488.0,0.19,0.1,10.0,-0.2,0.63,-0.07,17.69,50.0-60.0
50.0,1850.0,-0.44,-0.32,9.87,-0.49,-0.05,-0.48,17.7,50.0-60.0
50.0,1466.0,0.13,-0.44,10.11,-0.16,-0.79,0.4,17.68,50.0-60.0
50.0,1914.0,0.14,0.02,10.13,0.19,-0.79,1.06,17.67,50.0-60.0
50.0,1711.0,-0.16,0.32,10.1,0.25,-0.11,0.33,17.69,50.0-60.0
50.0,1959.0,-0.35,-0.09,9.86,0.06,-0.38,-0.53,17.68,50.0-60.0
50.0,1699.0,0.15,-0.27,10.09,-0.01,-1.82,0.02,17.69,50.0-60.0
50.0,1771.0,0.29,0.12,9.83,0.68,-0.24,0.43,17.7,50.0-60.0
50.0,1519.0,-0.14,0.37,9.6,0.59,0.93,0.18,17.69,50.0-60.0
50.0,1530.0,-0.62,-0.01,9.55,0.06,0.12,-0.56,17.72,50.0-60.0
50.0,1343.0,0.11,-0.28,9.92,0.15,-1.76,0.11,17.71,50.0-60.0
50.0,1501.0,0.35,0.08,9.96,0.42,-0.35,0.63,17.72,50.0-60.0
50.0,1648.0,-0.16,0.24,9.59,0.27,1.68,0.34,17.69,50.0-60.0
50.0,1620.0,-0.6,-0.08,9.43,0.09,1.08,-0.89,17.7,50.0-60.0
50.0,1519.0,-0.3,-0.06,9.62,0.65,-1.39,-0.36,17.69,50.0-60.0
50.0,1392.0,0.35,-0.09,9.94,0.33,-1.14,0.19,17.7,50.0-60.0
50.0,1600.0,0.05,0.1,9.82,0.21,1.54,0.31,17.71,50.0-60.0
50.0,1141.0,-0.67,-0.01,9.45,-0.01,1.98,-0.89,17.69,50.0-60.0
50.0,1157.0,-0.5,-0.08,9.47,0.33,-0.78,-0.47,17.7,50.0-60.0
50.0,1057.0,0.22,-0.26,10.02,-0.02,-1.63,0.37,17.69,50.0-60.0
50.0,1597.0,0.31,0.05,9.81,0.12,0.93,0.72,17.72,50.0-60.0
50.0,1678.0,-0.37,0.08,9.73,-0.14,1.59,-0.51,17.72,50.0-60.0
50.0,1783.0,-0.65,-0.12,9.53,0.04,-0.09,-0.72,17.71,50.0-60.0
50.0,1600.0,0.07,-0.4,9.93,-0.26,-1.83,-0.01,17.69,50.0-60.0
50.0,1840.0,0.35,-0.05,10.08,0.03,-0.17,0.48,17.71,50.0-60.0
50.0,1283.0,-0.03,0.17,9.85,0.01,1.1,-0.31,17.71,50.0-60.0
50.0,1887.0,-0.59,-0.27,9.7,-0.3,-0.0,-0.68,17.71,50.0-60.0
50.0,1458.0,-0.06,-0.27,10.04,0.06,-1.79,0.04,17.69,50.0-60.0
50.0,1994.0,0.28,-0.02,10.09,0.24,-0.69,0.95,17.73,50.0-60.0
50.0,1969.0,-0.18,0.33,9.97,0.21,0.43,0.31,17.7,50.0-60.0
50.0,1859.0,-0.42,-0.16,9.78,-0.17,0.03,-0.47,17.72,50.0-60.0
50.0,1520.0,-0.22,-0.12,9.72,0.36,-1.02,-0.21,17.72,50.0-60.0
50.0,1604.0,0.2,0.05,9.93,0.44,-0.37,0.65,17.69,50.0-60.0
50.0,1246.0,0.05,0.35,9.78,0.44,0.56,0.11,17.71,50.0-60.0
50.0,1375.0,-0.53,-0.12,9.59,-0.1,0.27,-0.76,17.69,50.0-60.0
50.0,1261.0,-0.36,-0.03,9.65,0.39,-0.93,-0.45,17.7,50.0-60.0
50.0,1377.0,0.33,0.12,10.0,0.48,-0.5,0.62,17.69,50.0-60.0
50.0,1568.0,-0.06,0.37,9.81,0.35,1.08,0.39,17.71,50.0-60.0
50.0,1293.0,-0.69,-0.05,9.48,-0.04,0.53,-0.63,17.7,50.0-60.0
50.0,1283.0,-0.32,-0.17,9.58,0.12,-0.96,-0.43,17.7,50.0-60.0
50.0,1343.0,0.35,-0.06,10.05,0.36,-0.67,0.47,17.69,50.0-60.0
50.0,1326.0,-0.06,0.26,9.72,0.3,1.3,0.28,17.69,50.0-60.0
50.0,1312.0,-0.59,-0.04,9.54,-0.05,1.07,-0.95,17.68,50.0-60.0
50.0,1771.0,-0.53,-0.1,9.64,0.12,-0.57,-0.63,17.69,50.0-60.0
50.0,1329.0,0.27,-0.08,9.89,0.3,-1.04,0.42,17.71,50.0-60.0
50.0,1622.0,0.13,0.16,9.81,0.3,1.02,0.56,17.71,50.0-60.0
50.0,1217.0,-0.56,-0.03,9.48,0.01,1.63,-0.76,17.7,50.0-60.0
50.0,1409.0,-0.69,-0.23,9.61,-0.23,-0.23,-0.54,17.74,50.0-60.0
50.0,1254.0,0.16,-0.22,9.94,0.13,-1.11,0.34,17.71,50.0-60.0
50.0,1607.0,0.1,0.12,9.8,0.35,1.14,0.53,17.72,50.0-60.0
50.0,1312.0,-0.43,0.13,9.61,0.07,1.46,-0.76,17.7,50.0-60.0
50.0,1647.0,-0.6,-0.33,9.61,-0.34,0.2,-0.8,17.71,50.0-60.0
50.0,1215.0,0.1,-0.46,9.97,-0.26,-1.27,0.04,17.68,50.0-60.0
50.0,1680.0,0.09,-0.12,9.74,0.07,0.98,0.4,17.69,50.0-60.0
50.0,1423.0,-0.23,0.04,9.76,-0.16,1.27,-0.63,17.69,50.0-60.0
50.0,1585.0,-0.46,-0.23,9.8,-0.22,0.14,-0.5,17.71,50.0-60.0
50.0,1534.0,0.19,-0.43,10.06,-0.34,-1.98,0.19,17.7,50.0-60.0
50.0,1670.0,0.19,-0.2,10.08,-0.13,0.3,0.71,17.7,50.0-60.0
50.0,1531.0,-0.02,0.17,10.0,-0.08,0.67,-0.18,17.71,50.0-60.0
50.0,1680.0,-0.62,-0.22,9.57,-0.19,0.38,-0.72,17.72,50.0-60.0
50.0,1535.0,0.17,-0.37,10.12,-0.13,-2.24,0.01,17.7,50.0-60.0
50.0,1532.0,-0.11,-0.02,9.74,0.24,0.15,0.24,17.47,50.0-60.0
50.0,1015.0,-0.12,-0.07,9.72,0.22,0.4,-0.14,17.47,50.0-60.0
50.0,1273.0,-0.13,0.1,9.89,0.36,-0.11,-0.22,17.47,50.0-60.0
50.0,1339.0,-0.17,0.13,9.88,0.44,-0.26,-0.25,17.45,50.0-60.0
50.0,1569.0,-0.07,0.14,9.8,0.28,-0.24,-0.16,17.46,50.0-60.0
50.0,1503.0,-0.1,0.01,9.7,0.06,0.17,0.1,17.47,50.0-60.0
50.0,797.0,-0.09,-0.06,9.9,0.01,-0.26,0.07,17.47,50.0-60.0
50.0,1398.0,-0.14,0.01,9.85,0.07,-0.29,0.3,17.47,50.0-60.0
50.0,1968.0,-0.08,0.03,9.77,0.1,-0.02,0.18,17.45,50.0-60.0
50.0,1182.0,-0.09,0.08,9.78,0.15,0.23,-0.02,17.47,50.0-60.0
50.0,1354.0,-0.17,-0.21,9.88,0.12,-0.15,-0.22,17.46,50.0-60.0
50.0,1443.0,-0.13,0.15,9.8,0.38,-0.08,0.07,17.44,50.0-60.0
50.0,1451.0,-0.07,0.05,9.86,0.39,0.2,-0.51,17.46,50.0-60.0
50.0,1474.0,-0.18,0.04,9.72,0.36,0.01,-0.77,17.45,50.0-60.0
50.0,1166.0,-0.17,0.01,9.83,0.42,-0.2,-0.85,17.47,50.0-60.0
50.0,1168.0,-0.03,-0.0,9.89,0.3,-0.57,-0.98,17.47,50.0-60.0
50.0,1327.0,-0.09,-0.04,9.64,0.15,0.35,-0.63,17.45,50.0-60.0
50.0,1131.0,-0.18,-0.0,9.76,-0.13,0.5,0.22,17.47,50.0-60.0
50.0,1173.0,-0.06,-0.1,9.82,-0.08,-0.43,0.51,17.45,50.0-60.0
50.0,848.0,-0.21,-0.14,9.77,-0.05,0.4,0.71,17.44,50.0-60.0
50.0,1558.0,-0.13,0.12,9.83,0.15,-0.09,0.91,17.47,50.0-60.0
50.0,942.0,-0.12,-0.03,9.76,0.27,0.03,0.33,17.46,50.0-60.0
50.0,955.0,-0.16,-0.0,9.76,0.47,0.35,-0.21,17.45,50.0-60.0
50.0,1199.0,-0.18,0.04,9.81,0.36,-0.18,-0.71,17.44,50.0-60.0
50.0,986.0,-0.12,0.18,9.94,0.51,-0.21,-0.71,17.44,50.0-60.0
50.0,1083.0,-0.01,0.09,9.84,0.42,-0.47,-0.43,17.46,50.0-60.0
50.0,1015.0,-0.12,-0.02,9.8,-0.01,0.41,-0.24,17.44,50.0-60.0
50.0,972.0,-0.13,-0.17,9.81,-0.19,-0.12,0.18,17.45,50.0-60.0
50.0,810.0,-0.24,-0.01,9.66,0.04,0.24,0.51,17.48,50.0-60.0
50.0,838.0,-0.15,-0.05,9.77,0.01,0.05,0.47,17.46,50.0-60.0
50.0,766.0,-0.12,-0.02,9.69,0.18,0.06,0.43,17.47,50.0-60.0
50.0,944.0,0.05,-0.11,9.76,0.25,0.05,-0.07,17.46,50.0-60.0
50.0,1187.0,-0.1,-0.09,9.7,0.24,0.34,-0.48,17.45,50.0-60.0
50.0,1072.0,-0.17,-0.01,9.79,0.19,0.03,-0.62,17.44,50.0-60.0
50.0,843.0,-0.2,0.12,9.82,0.44,-0.12,-0.47,17.46,50.0-60.0
50.0,892.0,-0.17,0.15,9.85,0.13,-0.21,-0.25,17.45,50.0-60.0
50.0,956.0,0.01,0.08,9.81,0.16,0.06,0.22,17.45,50.0-60.0
50.0,773.0,-0.24,-0.04,9.76,0.09,0.03,0.6,17.45,50.0-60.0
50.0,754.0,-0.17,-0.09,9.76,0.09,-0.05,0.6,17.44,50.0-60.0
50.0,848.0,-0.13,-0.07,9.74,0.09,0.05,0.56,17.45,50.0-60.0
50.0,563.0,-0.19,-0.11,9.79,0.16,0.06,0.22,17.44,50.0-60.0
50.0,817.0,-0.2,0.0,9.74,0.3,0.34,-0.31,17.45,50.0-60.0
50.0,877.0,-0.06,-0.01,9.88,0.3,-0.03,-0.5,17.46,50.0-60.0
50.0,1295.0,-0.24,0.29,9.7,0.51,0.27,-0.62,17.46,50.0-60.0
50.0,979.0,-0.0,-0.04,9.82,-0.08,-0.18,-0.62,17.44,50.0-60.0
50.0,882.0,-0.3,-0.05,9.77,-0.01,0.09,-0.31,17.45,50.0-60.0
50.0,1070.0,-0.1,-0.1,9.87,-0.19,-0.5,0.1,17.46,50.0-60.0
50.0,1351.0,-0.12,-0.31,9.84,-0.48,0.41,0.39,17.44,50.0-60.0
50.0,1222.0,-0.16,-0.21,9.8,0.03,0.15,0.71,17.46,50.0-60.0
50.0,1218.0,-0.16,-0.05,9.84,0.33,-0.06,0.62,17.45,50.0-60.0
50.0,1318.0,-0.14,-0.04,9.77,0.54,-0.08,0.45,17.45,50.0-60.0
50.0,903.0,-0.14,-0.06,9.9,0.38,-0.05,-0.45,17.45,50.0-60.0
50.0,1162.0,-0.33,-0.06,9.95,0.28,0.03,-0.97,17.48,50.0-60.0
50.0,925.0,-0.11,0.09,9.67,0.45,-0.0,-0.85,17.46,50.0-60.0
50.0,1081.0,0.08,-0.15,10.02,-0.25,-0.98,-0.47,17.46,50.0-60.0
50.0,1217.0,0.02,-0.07,9.66,0.09,0.47,0.39,17.45,50.0-60.0
50.0,1042.0,-0.17,-0.2,9.61,-0.28,0.29,0.89,17.45,50.0-60.0
50.0,1251.0,-0.06,-0.35,9.85,-0.52,-0.14,0.97,17.45,50.0-60.0
50.0,1212.0,-0.01,-0.03,9.82,-0.04,0.09,0.79,17.47,50.0-60.0
50.0,1260.0,-0.23,0.19,9.96,0.45,-0.5,-0.02,17.48,50.0-60.0
50.0,1456.0,0.03,0.13,9.8,0.71,-0.32,-0.89,17.46,50.0-60.0
50.0,1535.0,0.12,-0.04,9.91,0.51,0.14,-1.14,17.45,50.0-60.0
50.0,954.0,-0.23,-0.07,9.65,0.44,0.64,-0.74,17.44,50.0-60.0
50.0,951.0,-0.26,-0.18,9.73,-0.05,0.11,0.18,17.47,50.0-60.0
50.0,1203.0,-0.31,0.17,9.81,-0.01,-0.21,0.95,17.46,50.0-60.0
50.0,1517.0,-0.13,0.13,9.73,0.01,0.03,0.76,17.49,50.0-60.0
50.0,1535.0,-0.08,-0.0,9.79,-0.11,-0.11,0.28,17.46,50.0-60.0
50.0,1325.0,0.2,-0.17,10.02,-0.25,-0.69,-0.24,17.48,50.0-60.0
50.0,1406.0,-0.24,-0.22,9.74,0.18,0.84,-0.53,17.48,50.0-60.0
50.0,1176.0,-0.26,-0.11,9.67,0.38,0.34,-0.33,17.48,50.0-60.0
50.0,1488.0,0.01,0.12,9.92,0.59,-0.26,0.04,17.46,50.0-60.0
50.0,1707.0,-0.42,0.01,9.67,0.31,0.23,-0.4,17.45,50.0-60.0
50.0,1614.0,-0.07,0.01,9.8,0.09,-0.35,-0.4,17.46,50.0-60.0
50.0,1465.0,0.17,0.13,9.94,0.16,-0.2,0.14,17.47,50.0-60.0
50.0,1637.0,-0.22,-0.22,9.71,-0.22,0.98,0.45,17.47,50.0-60.0
50.0,1606.0,-0.21,-0.0,9.64,0.01,0.53,1.01,17.48,50.0-60.0
50.0,1701.0,-0.11,0.24,9.9,0.04,-0.49,0.68,17.47,50.0-60.0
50.0,1650.0,-0.36,0.02,9.72,0.36,-0.03,-0.51,17.47,50.0-60.0
50.0,2041.0,-0.18,0.04,9.83,0.28,-0.78,-1.03,17.47,50.0-60.0
50.0,1645.0,0.07,0.29,10.0,0.64,0.2,-0.8,17.46,50.0-60.0
50.0,1535.0,-0.47,0.07,9.78,0.42,0.55,-0.05,17.46,50.0-60.0
50.0,1726.0,-0.43,-0.33,9.69,-0.14,-0.14,0.28,17.47,50.0-60.0
50.0,1791.0,-0.25,0.5,9.95,0.36,-0.4,0.42,17.45,50.0-60.0
50.0,2205.0,0.0,0.27,9.81,0.41,-1.18,0.66,17.49,50.0-60.0
50.0,1712.0,0.51,0.03,10.21,-0.13,-0.9,0.68,17.47,50.0-60.0
50.0,1424.0,-0.19,-0.48,9.26,-0.02,2.32,0.18,17.45,50.0-60.0
50.0,1648.0,-0.55,0.46,9.58,0.5,0.61,0.5,17.45,50.0-60.0
50.0,1674.0,-0.23,0.79,9.95,0.93,0.09,-0.01,17.45,50.0-60.0
50.0,1644.0,-0.65,0.35,9.68,0.77,-1.36,-0.48,17.46,50.0-60.0
50.0,1879.0,0.73,-0.63,10.35,-0.33,-0.7,-0.79,17.46,50.0-60.0
50.0,1636.0,0.13,0.01,9.63,0.01,1.72,-0.34,17.43,50.0-60.0
50.0,2004.0,-0.15,0.27,9.78,-0.34,0.09,0.83,17.48,50.0-60.0
50.0,1600.0,-0.56,0.65,10.01,0.53,0.34,0.83,17.44,50.0-60.0
50.0,1482.0,-0.39,0.31,9.51,0.83,-1.56,0.65,17.46,50.0-60.0
50.0,2039.0,0.8,-0.08,9.95,0.57,-1.71,-0.02,17.46,50.0-60.0
50.0,1487.0,0.23,-0.2,9.87,0.04,2.27,-0.01,17.47,50.0-60.0
50.0,2155.0,-0.44,0.12,9.88,-0.31,0.82,0.16,17.45,50.0-60.0
50.0,1535.0,-0.86,0.81,9.79,0.91,0.3,-0.25,17.47,50.0-60.0
50.0,1287.0,-0.57,-0.62,9.48,-0.08,-1.66,-1.17,17.46,50.0-60.0
50.0,1479.0,0.64,-0.82,10.27,0.04,-1.5,-0.66,17.44,50.0-60.0
50.0,1342.0,-0.18,-0.67,9.48,-0.59,2.73,-0.39,17.43,50.0-60.0
50.0,2077.0,-0.3,0.24,9.49,-0.14,2.04,0.08,17.44,50.0-60.0
50.0,1661.0,-1.16,0.75,9.69,0.54,1.1,0.71,17.46,50.0-60.0
50.0,1520.0,-0.46,0.08,9.87,0.7,-3.45,0.54,17.46,50.0-60.0
50.0,1329.0,0.73,-0.77,10.06,-0.45,-0.98,-0.18,17.46,50.0-60.0
50.0,1109.0,0.04,-0.81,9.51,-0.28,2.44,-0.63,17.45,50.0-60.0
50.0,1875.0,-0.09,0.33,10.02,-0.07,2.17,-0.24,17.45,50.0-60.0
50.0,1693.0,-1.23,0.55,9.48,0.47,0.44,-0.65,17.44,50.0-60.0
50.0,1873.0,0.75,0.75,10.58,1.17,-5.34,0.72,17.44,50.0-60.0
50.0,1294.0,0.79,0.88,10.5,1.06,-1.07,1.4,17.46,50.0-60.0
50.0,1008.0,-0.0,-0.55,9.34,-0.17,2.67,-0.01,17.45,50.0-60.0
50.0,885.0,-0.9,-0.67,9.09,-0.84,4.32,-0.83,17.44,50.0-60.0
50.0,1361.0,-1.38,-1.08,8.68,-0.66,0.34,-1.32,17.44,50.0-60.0
50.0,1804.0,0.81,-0.93,10.11,-0.48,-2.69,-0.42,17.45,50.0-60.0
50.0,1811.0,1.19,0.8,10.65,0.88,-1.48,1.37,17.44,50.0-60.0
50.0,1616.0,0.44,0.99,10.49,0.8,0.06,0.95,17.47,50.0-60.0
50.0,902.0,-1.37,0.75,9.54,0.67,2.3,-0.59,17.45,50.0-60.0
50.0,949.0,-1.59,-1.21,8.78,-0.46,-0.02,-1.84,17.47,50.0-60.0
50.0,896.0,0.31,-1.26,9.7,-0.72,-1.37,-0.53,17.44,50.0-60.0
50.0,1492.0,0.71,-0.78,9.47,-0.59,1.82,0.05,17.46,50.0-60.0
50.0,1664.0,-0.08,-0.42,9.99,-1.0,4.52,-0.6,17.45,50.0-60.0
50.0,1936.0,-1.52,0.63,9.76,0.15,1.89,-0.11,17.47,50.0-60.0
50.0,1872.0,-0.0,0.57,10.24,1.09,-6.62,0.91,17.46,50.0-60.0
50.0,1073.0,0.81,0.57,10.46,1.11,-2.15,1.34,17.45,50.0-60.0
50.0,1080.0,0.87,0.77,10.28,1.17,-1.69,0.92,17.46,50.0-60.0
50.0,590.0,-0.59,-0.04,9.23,-0.25,5.48,-1.59,17.46,50.0-60.0
50.0,1013.0,-1.63,-0.62,8.55,-0.25,1.68,-1.73,17.46,50.0-60.0
50.0,1051.0,0.17,-0.69,9.85,-0.25,-0.28,-0.36,17.46,50.0-60.0
50.0,1621.0,-0.05,-0.35,9.15,0.1,1.71,0.4,17.45,50.0-60.0
50.0,1520.0,0.99,0.32,11.14,-0.19,-2.26,1.23,17.44,50.0-60.0
50.0,1966.0,-0.84,-0.08,9.65,-0.6,2.12,-0.45,17.44,50.0-60.0
50.0,1708.0,0.43,-0.17,11.04,-0.11,-5.11,0.62,17.43,50.0-60.0
50.0,1565.0,-0.05,0.13,10.33,0.12,-1.6,1.18,17.44,50.0-60.0
50.0,1292.0,0.3,0.59,9.27,1.37,-1.39,0.51,17.47,50.0-60.0
50.0,640.0,-0.38,0.32,8.87,0.82,4.24,-1.26,17.45,50.0-60.0
50.0,934.0,-0.45,0.12,8.83,1.08,-0.37,-0.94,17.46,50.0-60.0
50.0,673.0,-0.44,0.07,9.21,0.74,2.33,-0.08,17.45,50.0-60.0
50.0,1200.0,-0.44,-0.25,9.6,-0.39,0.84,0.62,17.46,50.0-60.0
50.0,1088.0,0.4,-0.05,10.38,-0.6,0.44,-0.02,17.48,50.0-60.0
50.0,1443.0,-0.82,-0.69,9.4,-0.77,0.98,-0.79,17.47,50.0-60.0
50.0,1569.0,0.38,-0.74,10.47,-0.74,-0.23,-0.08,17.46,50.0-60.0
50.0,1845.0,-0.19,-0.04,10.03,-0.04,0.61,0.8,17.47,50.0-60.0
50.0,1664.0,0.21,0.36,10.65,0.19,-2.75,0.66,17.46,50.0-60.0
50.0,1614.0,-0.46,-0.14,9.73,-0.07,0.03,-0.6,17.47,50.0-60.0
50.0,1253.0,0.77,-0.38,10.74,-0.4,-3.97,0.39,17.45,50.0-60.0
50.0,1414.0,0.19,0.52,9.81,1.05,1.14,0.47,17.44,50.0-60.0
50.0,1121.0,-0.31,0.78,9.46,1.18,0.15,0.56,17.45,50.0-60.0
50.0,896.0,-0.78,0.4,9.5,0.57,0.73,-0.25,17.46,50.0-60.0
50.0,1023.0,0.06,0.23,9.69,1.09,-3.04,0.36,17.47,50.0-60.0
50.0,564.0,0.25,-0.21,9.82,0.07,0.56,0.18,17.47,50.0-60.0
50.0,914.0,-0.18,-0.09,9.38,0.16,2.7,-0.13,17.46,50.0-60.0
50.0,806.0,-0.84,-0.15,9.22,-0.01,3.23,-1.41,17.47,50.0-60.0
50.0,1195.0,-0.39,-0.1,9.25,0.6,-0.72,-0.82,17.48,50.0-60.0
50.0,976.0,0.65,-0.34,10.62,-0.16,-2.82,0.47,17.47,50.0-60.0
50.0,1392.0,0.27,-0.16,9.94,-0.16,0.96,0.5,17.47,50.0-60.0
50.0,1299.0,-0.44,-0.16,10.13,-0.59,1.05,-0.4,17.48,50.0-60.0
50.0,1733.0,-0.73,-0.41,9.59,-0.37,-0.55,-0.5,17.45,50.0-60.0
50.0,1593.0,0.28,-0.24,10.21,0.09,-3.24,0.57,17.46,50.0-60.0
50.0,1678.0,0.21,0.13,10.03,0.15,0.09,0.95,17.45,50.0-60.0
50.0,1209.0,0.24,0.23,10.11,-0.02,0.12,-0.02,17.46,50.0-60.0
50.0,1421.0,-0.77,-0.31,9.59,-0.19,0.03,-0.69,17.48,50.0-60.0
50.0,1264.0,-0.08,-0.22,9.82,0.42,-2.08,-0.24,17.46,50.0-60.0
50.0,1610.0,0.17,0.11,9.88,0.56,0.15,0.65,17.47,50.0-60.0
50.0,1254.0,-0.09,0.55,10.06,0.54,-0.38,0.22,17.46,50.0-60.0
50.0,1302.0,-0.48,-0.03,9.71,0.04,0.37,-0.42,17.44,50.0-60.0
50.0,939.0,-0.23,-0.07,9.59,0.64,-0.98,-0.16,17.44,50.0-60.0
50.0,1397.0,-0.02,0.19,9.71,0.56,0.41,0.66,17.45,50.0-60.0
50.0,1057.0,0.04,0.5,9.8,0.71,0.09,0.36,17.46,50.0-60.0
50.0,1260.0,-0.61,0.02,9.34,0.24,0.72,-0.65,17.45,50.0-60.0
50.0,1072.0,-0.19,-0.13,9.66,0.25,-0.98,-0.56,17.47,50.0-60.0
50.0,1372.0,0.11,0.04,9.81,0.44,0.84,0.3,17.46,50.0-60.0
50.0,978.0,-0.14,0.38,9.61,0.39,0.93,0.07,17.44,50.0-60.0
50.0,1150.0,-0.69,-0.11,9.26,0.03,1.3,-0.98,17.47,50.0-60.0
50.0,1075.0,-0.14,-0.19,9.83,0.13,-1.56,-0.3,17.46,50.0-60.0
50.0,1410.0,0.28,0.04,10.08,0.18,-0.29,0.68,17.47,50.0-60.0
50.0,1594.0,-0.09,0.35,9.86,0.28,0.96,0.45,17.45,50.0-60.0
50.0,1437.0,-0.74,-0.02,9.53,-0.13,1.24,-0.83,17.47,50.0-60.0
50.0,1535.0,-0.39,-0.22,9.68,-0.02,-1.14,-0.48,17.46,50.0-60.0
50.0,1293.0,0.32,-0.07,10.03,0.25,-0.73,0.42,17.45,50.0-60.0
50.0,1085.0,0.04,0.06,9.65,0.13,1.05,0.16,17.47,50.0-60.0
50.0,1152.0,-0.62,-0.27,9.53,-0.26,1.78,-1.26,17.45,50.0-60.0
50.0,1232.0,-0.7,-0.19,9.71,-0.08,-0.7,-0.57,17.46,50.0-60.0
50.0,1271.0,0.34,-0.16,10.06,0.1,-1.25,0.6,17.47,50.0-60.0
50.0,1684.0,0.1,-0.09,9.87,0.01,1.05,0.56,17.45,50.0-60.0
50.0,1579.0,-0.54,-0.28,9.61,-0.28,1.54,-0.89,17.47,50.0-60.0
50.0,1939.0,-0.49,-0.04,9.77,0.1,-0.67,-0.24,17.47,50.0-60.0
50.0,1436.0,0.28,-0.04,10.09,0.19,-1.39,0.66,17.47,50.0-60.0
50.0,1983.0,0.19,0.01,10.0,0.19,0.18,0.63,17.47,50.0-60.0
50.0,1151.0,-0.49,-0.1,9.78,-0.16,1.14,-0.74,17.47,50.0-60.0
50.0,1789.0,-0.53,-0.1,9.6,0.18,-0.35,-0.62,17.47,50.0-60.0
50.0,897.0,0.18,-0.13,9.96,0.21,-0.9,0.21,17.48,50.0-60.0
50.0,1614.0,0.04,0.07,9.78,0.53,0.66,0.51,17.45,50.0-60.0
50.0,1266.0,-0.45,0.05,9.67,0.01,0.99,-0.63,17.49,50.0-60.0
50.0,1851.0,-0.56,-0.16,9.52,0.01,-0.14,-0.57,17.49,50.0-60.0
50.0,954.0,0.12,-0.27,10.11,0.12,-0.72,0.34,17.44,50.0-60.0
50.0,1632.0,-0.17,-0.03,9.64,0.33,1.04,0.47,17.47,50.0-60.0
50.0,1260.0,-0.42,-0.04,9.64,-0.14,1.3,-0.82,17.46,50.0-60.0
50.0,1830.0,-0.49,-0.18,9.52,0.01,0.03,-0.72,17.45,50.0-60.0
50.0,1200.0,0.19,-0.29,10.21,-0.07,-1.48,0.24,17.47,50.0-60.0
50.0,1971.0,0.05,-0.02,9.8,0.15,0.93,0.47,17.48,50.0-60.0
50.0,1526.0,-0.27,0.11,9.89,-0.16,1.13,-0.65,17.46,50.0-60.0
50.0,2097.0,-0.75,-0.28,9.55,-0.11,0.24,-0.65,17.49,50.0-60.0
50.0,1571.0,0.24,-0.45,10.23,-0.1,-1.97,0.34,17.47,50.0-60.0
50.0,1904.0,0.06,-0.24,9.71,-0.04,1.05,0.47,17.47,50.0-60.0
50.0,1753.0,-0.24,-0.06,9.95,-0.31,1.14,-0.68,17.48,50.0-60.0
50.0,2256.0,-0.74,-0.19,9.63,-0.13,0.47,-0.65,17.47,50.0-60.0
50.0,1556.0,0.28,-0.46,10.27,-0.2,-2.26,0.31,17.48,50.0-60.0
50.0,2178.0,0.07,-0.21,9.7,0.06,0.78,0.5,17.46,50.0-60.0
50.0,1766.0,-0.02,0.01,10.1,-0.26,0.55,-0.45,17.48,50.0-60.0
50.0,2354.0,-0.61,-0.21,9.68,0.03,0.55,-0.63,17.45,50.0-60.0
50.0,1488.0,0.15,-0.47,10.12,-0.17,-2.35,0.31,17.46,50.0-60.0
50.0,2041.0,0.11,-0.33,9.83,-0.19,0.55,0.57,17.45,50.0-60.0
50.0,1715.0,-0.12,-0.14,10.14,-0.42,0.5,-0.43,17.48,50.0-60.0
50.0,2074.0,-0.66,-0.11,9.67,0.1,0.46,-0.56,17.48,50.0-60.0
50.0,1901.0,0.21,-0.25,10.09,-0.04,-2.37,0.36,17.46,50.0-60.0
50.0,2176.0,0.25,-0.13,9.93,0.04,0.44,0.62,17.46,50.0-60.0
50.0,1767.0,-0.27,0.12,10.06,-0.11,0.46,-0.36,17.49,50.0-60.0
50.0,1923.0,-0.75,-0.27,9.45,-0.01,0.27,-0.85,17.47,50.0-60.0
50.0,1621.0,0.31,-0.42,10.02,-0.11,-1.92,0.22,17.47,50.0-60.0
50.0,1915.0,0.24,-0.22,9.73,0.06,0.96,0.5,17.47,50.0-60.0
50.0,1346.0,-0.44,0.01,9.82,-0.17,1.13,-0.51,17.48,50.0-60.0
50.0,2245.0,-0.76,-0.31,9.58,-0.26,0.38,-0.68,17.47,50.0-60.0
50.0,1535.0,0.4,-0.45,10.2,-0.23,-2.14,0.28,17.48,50.0-60.0
50.0,1898.0,0.21,-0.1,9.81,0.1,0.72,0.62,17.46,50.0-60.0
50.0,1871.0,-0.2,0.14,9.99,-0.16,0.82,-0.36,17.48,50.0-60.0
50.0,1877.0,-0.7,-0.45,9.71,-0.37,0.23,-0.8,17.47,50.0-60.0
50.0,1631.0,0.24,-0.58,10.17,-0.33,-2.17,0.19,17.47,50.0-60.0
50.0,2038.0,0.24,-0.22,9.78,-0.08,0.46,0.53,17.47,50.0-60.0
50.0,1757.0,-0.12,0.07,10.06,-0.22,1.01,-0.5,17.46,50.0-60.0
50.0,1962.0,-0.72,-0.39,9.69,-0.33,0.4,-0.69,17.47,50.0-60.0
50.0,1408.0,0.19,-0.63,10.15,-0.4,-2.01,0.24,17.48,50.0-60.0
50.0,1965.0,0.18,-0.24,9.71,0.04,0.69,0.48,17.47,50.0-60.0
50.0,1520.0,-0.14,0.04,9.93,-0.2,1.05,-0.57,17.47,50.0-60.0
50.0,2042.0,-0.69,-0.39,9.74,-0.42,0.34,-0.65,17.49,50.0-60.0
50.0,1262.0,0.21,-0.58,10.22,-0.36,-1.95,0.19,17.46,50.0-60.0
50.0,1807.0,0.12,-0.27,9.71,-0.11,0.7,0.43,17.47,50.0-60.0
50.0,1638.0,-0.16,-0.01,9.97,-0.22,1.02,-0.66,17.47,50.0-60.0
50.0,2043.0,-0.72,-0.27,9.65,-0.11,0.12,-0.5,17.46,50.0-60.0
50.0,1623.0,0.26,-0.51,10.26,-0.36,-2.21,0.33,17.46,50.0-60.0
50.0,1926.0,0.11,-0.34,9.86,-0.23,0.64,0.51,17.45,50.0-60.0
50.0,1658.0,-0.28,-0.19,9.95,-0.45,0.93,-0.72,17.46,50.0-60.0
50.0,1970.0,-0.68,-0.02,9.61,0.16,-0.06,-0.39,17.47,50.0-60.0
50.0,1502.0,0.37,-0.31,10.21,-0.07,-2.37,0.51,17.47,50.0-60.0
50.0,1981.0,0.23,-0.04,9.97,0.13,0.37,0.69,17.45,50.0-60.0
50.0,1150.0,-0.28,0.17,9.92,-0.01,0.59,-0.45,17.46,50.0-60.0
50.0,1497.0,-0.7,-0.21,9.41,0.06,0.15,-0.69,17.47,50.0-60.0
50.0,1088.0,0.08,-0.45,9.95,0.03,-1.16,0.16,17.47,50.0-60.0
50.0,1494.0,0.02,-0.07,9.71,0.33,0.67,0.48,17.46,50.0-60.0
50.0,1184.0,-0.42,0.14,9.58,0.15,1.62,-0.76,17.47,50.0-60.0
50.0,1439.0,-0.6,-0.21,9.48,-0.1,0.18,-0.69,17.46,50.0-60.0
50.0,1145.0,0.04,-0.45,10.07,-0.16,-0.76,0.04,17.47,50.0-60.0
50.0,1521.0,-0.13,-0.05,9.62,0.25,0.88,0.31,17.47,50.0-60.0
50.0,1182.0,-0.36,0.02,9.56,0.03,1.74,-0.85,17.45,50.0-60.0
50.0,1817.0,-0.54,-0.12,9.56,-0.22,0.08,-0.66,17.48,50.0-60.0
50.0,1237.0,0.13,-0.37,10.2,-0.23,-1.05,0.3,17.47,50.0-60.0
50.0,1423.0,-0.04,-0.03,9.74,0.36,0.66,0.51,17.48,50.0-60.0
50.0,1177.0,-0.34,0.01,9.74,-0.14,1.27,-0.76,17.48,50.0-60.0
50.0,1877.0,-0.51,-0.09,9.51,0.09,0.03,-0.47,17.47,50.0-60.0
50.0,1108.0,0.1,-0.19,10.11,0.13,-1.1,0.33,17.48,50.0-60.0
50.0,1626.0,-0.03,0.15,9.82,0.51,0.64,0.56,17.47,50.0-60.0
50.0,987.0,-0.48,0.23,9.69,0.28,1.04,-0.68,17.46,50.0-60.0
50.0,1767.0,-0.64,-0.28,9.37,-0.08,0.18,-0.92,17.45,50.0-60.0
50.0,992.0,0.09,-0.35,9.94,-0.13,-0.47,0.02,17.45,50.0-60.0
50.0,1259.0,-0.13,0.05,9.54,0.53,1.39,0.14,17.46,50.0-60.0
50.0,1056.0,-0.61,0.14,9.43,0.09,1.85,-0.98,17.47,50.0-60.0
50.0,1559.0,-0.53,-0.33,9.5,-0.3,0.06,-0.71,17.47,50.0-60.0
50.0,1008.0,0.1,-0.36,10.08,-0.17,-0.32,0.28,17.47,50.0-60.0
50.0,1446.0,-0.06,0.01,9.53,0.42,1.42,0.3,17.46,50.0-60.0
50.0,866.0,-0.65,0.16,9.54,0.18,2.32,-0.95,17.47,50.0-60.0
50.0,1701.0,-0.62,-0.21,9.57,-0.14,-0.17,-0.42,17.45,50.0-60.0
50.0,1063.0,0.2,-0.13,10.04,-0.01,-0.64,0.27,17.47,50.0-60.0
50.0,912.0,0.06,0.2,9.53,0.64,1.39,0.18,17.49,50.0-60.0
50.0,880.0,-0.69,0.34,9.5,0.39,1.83,-1.03,17.47,50.0-60.0
