Speed,Voice,Acceleration X,Acceleration Y,Acceleration Z,Gyro X,Gyro Y,Gyro Z,Temperature,Speed_Range
50.0,874.0,-0.08,0.03,9.8,-0.1,-0.02,-0.0,28.0,50.0-60.0
50.0,1854.0,-0.07,-0.02,9.84,-0.13,-0.02,0.11,28.02,50.0-60.0
50.0,1366.0,-0.07,-0.05,9.8,-0.14,0.04,0.2,28.03,50.0-60.0
50.0,1565.0,-0.07,-0.02,9.78,-0.1,0.01,0.29,28.03,50.0-60.0
50.0,1651.0,-0.06,0.01,9.8,-0.08,0.01,0.29,28.02,50.0-60.0
50.0,1719.0,-0.09,0.03,9.82,-0.13,0.01,0.12,28.01,50.0-60.0
50.0,1081.0,-0.07,0.02,9.83,-0.05,-0.07,-0.02,28.01,50.0-60.0
50.0,996.0,-0.08,0.01,9.83,-0.11,-0.02,-0.11,28.02,50.0-60.0
50.0,2113.0,-0.08,0.04,9.78,-0.02,-0.01,-0.15,28.02,50.0-60.0
50.0,1401.0,-0.06,-0.07,9.83,-0.28,-0.02,-0.11,28.0,50.0-60.0
50.0,816.0,-0.12,0.09,9.78,0.01,0.05,-0.15,28.02,50.0-60.0
50.0,1437.0,-0.08,0.05,9.75,-0.08,0.14,-0.09,28.0,50.0-60.0
50.0,1507.0,-0.1,-0.08,9.82,-0.19,0.02,-0.0,28.0,50.0-60.0
50.0,1104.0,-0.12,0.08,9.76,-0.08,0.08,0.2,28.0,50.0-60.0
50.0,1517.0,-0.04,-0.07,9.84,-0.19,-0.11,0.56,28.02,50.0-60.0
50.0,1998.0,-0.09,-0.1,9.8,-0.2,-0.02,0.76,28.02,50.0-60.0
50.0,2000.0,-0.08,0.03,9.75,-0.25,0.07,1.13,28.01,50.0-60.0
50.0,2155.0,-0.08,-0.01,9.8,-0.1,-0.1,0.87,28.03,50.0-60.0
50.0,1882.0,-0.1,0.0,9.8,-0.16,0.07,0.29,28.01,50.0-60.0
50.0,1819.0,-0.07,-0.05,9.81,-0.13,0.01,-0.14,28.01,50.0-60.0
50.0,1516.0,-0.13,0.15,9.74,0.12,0.1,-0.93,28.0,50.0-60.0
50.0,1823.0,-0.04,0.15,9.76,0.16,-0.01,-1.19,28.03,50.0-60.0
50.0,2000.0,-0.18,-0.07,9.79,-0.13,0.47,-1.01,28.01,50.0-60.0
50.0,1648.0,-0.09,-0.09,9.81,-0.19,0.01,-0.4,28.02,50.0-60.0
50.0,1822.0,0.01,-0.21,9.87,-0.34,-0.33,0.67,28.02,50.0-60.0
50.0,1840.0,-0.12,-0.19,9.79,-0.54,-0.08,1.45,28.0,50.0-60.0
50.0,2033.0,-0.03,-0.1,9.86,-0.42,-0.05,1.48,28.02,50.0-60.0
50.0,1886.0,-0.05,0.01,9.83,-0.34,-0.04,1.22,28.02,50.0-60.0
50.0,1907.0,-0.03,-0.05,9.78,-0.25,-0.01,0.05,28.03,50.0-60.0
50.0,1806.0,-0.11,-0.06,9.7,-0.11,0.13,-0.93,28.03,50.0-60.0
50.0,2064.0,-0.05,0.18,9.75,0.07,0.28,-1.54,28.03,50.0-60.0
50.0,2268.0,-0.06,-0.09,9.81,-0.11,0.18,-1.62,28.02,50.0-60.0
50.0,2262.0,-0.01,-0.12,9.79,-0.13,0.07,-1.04,28.0,50.0-60.0
50.0,2113.0,-0.07,-0.07,9.79,-0.01,0.22,-0.11,28.0,50.0-60.0
50.0,2064.0,-0.0,0.11,9.81,-0.02,-0.01,0.96,28.02,50.0-60.0
50.0,1905.0,-0.05,-0.02,9.79,-0.17,-0.01,1.3,28.0,50.0-60.0
50.0,1844.0,-0.02,-0.01,9.8,-0.23,0.05,1.43,28.01,50.0-60.0
50.0,1744.0,-0.08,0.24,9.78,-0.11,0.08,0.92,28.01,50.0-60.0
50.0,2085.0,0.06,0.15,9.82,-0.19,-0.04,0.18,28.0,50.0-60.0
50.0,1735.0,-0.14,0.08,9.82,-0.16,-0.05,-0.4,28.02,50.0-60.0
50.0,1497.0,0.05,0.02,9.87,-0.19,0.08,-1.02,28.02,50.0-60.0
50.0,1859.0,-0.19,0.04,9.77,-0.14,-0.1,-1.21,28.03,50.0-60.0
50.0,1742.0,-0.11,-0.19,9.79,-0.36,-0.13,-1.01,28.01,50.0-60.0
50.0,1787.0,-0.01,-0.14,9.84,-0.02,-0.13,-0.55,28.02,50.0-60.0
50.0,1840.0,-0.12,-0.09,9.72,0.16,0.11,0.14,28.02,50.0-60.0
50.0,1792.0,-0.2,-0.0,9.71,0.07,-0.01,0.76,28.02,50.0-60.0
50.0,2017.0,-0.06,0.05,9.85,-0.01,0.19,1.31,28.01,50.0-60.0
50.0,1735.0,-0.04,0.08,9.81,-0.14,-0.15,1.5,28.02,50.0-60.0
50.0,1765.0,0.06,0.13,9.9,-0.17,-0.16,1.21,28.03,50.0-60.0
50.0,1921.0,0.02,0.07,9.94,-0.36,-0.31,0.31,28.02,50.0-60.0
50.0,1744.0,-0.28,0.12,9.7,-0.17,-0.19,-1.02,28.02,50.0-60.0
50.0,1787.0,-0.01,0.0,9.75,-0.11,0.24,-1.75,28.02,50.0-60.0
50.0,1904.0,-0.04,-0.06,9.75,0.03,0.13,-2.03,28.01,50.0-60.0
50.0,1788.0,-0.14,-0.02,9.69,-0.02,0.27,-1.19,28.0,50.0-60.0
50.0,1853.0,-0.09,-0.04,9.81,-0.08,0.27,0.58,28.02,50.0-60.0
50.0,1922.0,-0.12,-0.14,9.92,-0.4,-0.11,1.62,28.0,50.0-60.0
50.0,1680.0,-0.26,-0.11,9.66,-0.42,0.28,2.35,28.0,50.0-60.0
50.0,1920.0,0.24,-0.08,9.98,-0.13,-0.31,1.71,28.02,50.0-60.0
50.0,1845.0,-0.05,0.11,9.74,0.16,-0.3,0.09,28.0,50.0-60.0
50.0,1926.0,0.03,0.02,9.85,0.15,0.05,-0.9,28.02,50.0-60.0
50.0,1623.0,0.0,0.2,9.81,0.1,0.04,-1.57,28.02,50.0-60.0
50.0,2003.0,-0.13,0.21,9.75,-0.02,0.08,-1.36,28.02,50.0-60.0
50.0,2096.0,-0.0,-0.06,9.89,-0.22,0.02,-0.76,27.99,50.0-60.0
50.0,1699.0,-0.13,-0.04,9.79,-0.23,0.1,-0.32,28.02,50.0-60.0
50.0,1959.0,-0.04,0.04,9.84,-0.11,-0.39,0.34,28.01,50.0-60.0
50.0,1834.0,0.05,-0.07,9.87,-0.2,-0.1,1.11,28.02,50.0-60.0
50.0,1713.0,-0.18,-0.13,9.67,-0.58,0.19,1.89,27.99,50.0-60.0
50.0,1981.0,0.06,0.17,9.93,-0.25,0.04,1.95,28.01,50.0-60.0
50.0,1936.0,-0.21,-0.0,9.73,-0.22,0.19,0.69,28.0,50.0-60.0
50.0,1749.0,-0.06,-0.19,9.81,-0.08,-0.42,-1.08,28.02,50.0-60.0
50.0,1707.0,0.1,-0.04,9.81,0.16,-0.16,-2.12,28.02,50.0-60.0
50.0,1984.0,0.08,0.18,9.85,0.38,0.08,-1.92,28.01,50.0-60.0
50.0,1897.0,-0.16,0.07,9.78,-0.05,0.24,-0.72,28.03,50.0-60.0
50.0,1563.0,-0.32,-0.11,9.7,-0.34,-0.08,0.43,28.02,50.0-60.0
50.0,1631.0,-0.18,-0.08,9.74,-0.17,-0.24,0.89,28.02,50.0-60.0
50.0,2292.0,0.17,0.09,9.84,-0.02,-0.51,1.21,28.01,50.0-60.0
50.0,1456.0,0.14,0.28,9.79,-0.11,0.08,1.57,27.99,50.0-60.0
50.0,1680.0,-0.03,0.06,9.88,-0.45,0.45,1.48,28.01,50.0-60.0
50.0,1951.0,-0.24,-0.12,9.77,-0.54,0.34,0.78,28.01,50.0-60.0
50.0,1567.0,-0.22,0.0,9.76,-0.1,-0.51,-0.95,28.0,50.0-60.0
50.0,2190.0,0.16,0.15,9.81,0.33,-0.5,-2.0,28.02,50.0-60.0
50.0,1850.0,0.21,0.21,9.79,0.28,0.27,-1.42,28.03,50.0-60.0
50.0,1830.0,-0.18,-0.16,9.71,-0.13,0.42,-0.78,28.01,50.0-60.0
50.0,1521.0,-0.45,-0.26,9.7,-0.4,0.21,0.23,28.02,50.0-60.0
50.0,1489.0,-0.16,-0.17,9.88,-0.05,-0.76,0.78,28.01,50.0-60.0
50.0,2025.0,0.27,0.07,9.84,0.21,-0.54,1.25,28.01,50.0-60.0
50.0,1804.0,0.37,0.3,9.97,0.01,-0.27,1.75,28.01,50.0-60.0
50.0,2001.0,-0.18,0.2,9.78,-0.31,0.89,1.43,27.99,50.0-60.0
50.0,1767.0,-0.38,-0.04,9.81,-0.31,0.19,-0.11,27.99,50.0-60.0
50.0,1639.0,-0.15,-0.04,9.8,0.03,-0.86,-1.72,28.0,50.0-60.0
50.0,1707.0,0.23,0.15,9.84,0.21,-0.89,-1.91,28.0,50.0-60.0
50.0,1614.0,0.44,0.07,9.9,-0.2,0.25,-1.04,28.0,50.0-60.0
50.0,1433.0,-0.47,-0.07,9.68,-0.28,1.01,-0.26,28.02,50.0-60.0
50.0,1940.0,-0.5,-0.06,9.74,-0.04,0.07,0.18,28.01,50.0-60.0
50.0,2327.0,-0.14,-0.09,9.78,-0.01,-0.91,0.66,28.01,50.0-60.0
50.0,1741.0,0.47,0.08,9.96,-0.07,-0.86,1.72,28.02,50.0-60.0
50.0,1723.0,0.33,-0.06,9.87,-0.3,0.54,1.86,28.02,50.0-60.0
50.0,1479.0,-0.64,-0.08,9.7,-0.19,0.89,0.4,28.02,50.0-60.0
50.0,1869.0,-0.46,0.1,9.7,0.18,-0.15,-0.7,28.05,50.0-60.0
50.0,2122.0,0.03,0.21,9.82,0.22,-1.09,-1.36,28.0,50.0-60.0
50.0,1474.0,0.6,0.03,9.95,-0.19,-0.33,-1.08,28.0,50.0-60.0
50.0,1616.0,-0.12,-0.12,9.84,-0.34,0.94,-1.08,28.02,50.0-60.0
50.0,1840.0,-0.52,-0.09,9.64,-0.14,0.91,-0.92,28.01,50.0-60.0
50.0,1685.0,-0.46,0.05,9.7,-0.13,-0.42,0.2,28.01,50.0-60.0
50.0,1968.0,0.24,0.16,9.84,-0.28,-0.79,1.95,28.06,50.0-60.0
50.0,1783.0,0.3,0.08,9.82,-0.23,0.5,2.04,28.01,50.0-60.0
50.0,1795.0,-0.14,-0.09,9.78,-0.2,0.95,1.22,28.02,50.0-60.0
50.0,1730.0,-0.49,0.02,9.8,0.03,-0.02,-0.08,28.0,50.0-60.0
50.0,1085.0,-0.18,0.09,9.73,0.04,-0.8,-0.35,28.02,50.0-60.0
50.0,2151.0,0.27,-0.16,9.88,-0.26,-0.3,-0.93,28.04,50.0-60.0
50.0,1437.0,0.2,-0.02,9.93,0.15,0.18,-1.63,28.02,50.0-60.0
50.0,1339.0,-0.28,0.08,9.65,0.3,0.48,-1.65,28.02,50.0-60.0
50.0,1712.0,-0.23,0.03,9.79,-0.17,-0.27,-0.05,28.02,50.0-60.0
50.0,1789.0,0.08,-0.04,9.85,-0.36,-0.59,1.37,28.03,50.0-60.0
50.0,1926.0,-0.03,-0.12,9.76,-0.33,-0.1,1.42,28.02,50.0-60.0
50.0,1635.0,-0.0,0.01,9.78,-0.19,0.08,1.01,28.02,50.0-60.0
50.0,1573.0,-0.04,0.12,9.84,-0.37,0.04,1.11,28.01,50.0-60.0
50.0,1627.0,-0.32,-0.01,9.75,-0.48,-0.18,0.53,28.01,50.0-60.0
50.0,1455.0,-0.05,-0.18,9.82,-0.3,0.11,-0.56,28.02,50.0-60.0
50.0,1791.0,-0.0,-0.11,9.83,0.15,-0.47,-1.8,28.01,50.0-60.0
50.0,1616.0,-0.04,0.06,9.8,0.13,0.24,-1.33,28.01,50.0-60.0
50.0,1949.0,-0.29,-0.12,9.68,-0.13,0.57,-0.26,28.02,50.0-60.0
50.0,1888.0,-0.39,-0.08,9.67,-0.02,0.63,0.08,28.0,50.0-60.0
50.0,1989.0,-0.32,0.01,9.78,0.16,-0.25,0.46,28.04,50.0-60.0
50.0,1457.0,0.09,0.19,9.79,-0.1,-0.1,1.51,28.0,50.0-60.0
50.0,1885.0,0.09,-0.05,9.88,-0.55,0.57,1.88,28.04,50.0-60.0
50.0,1841.0,-0.29,-0.05,9.74,-0.37,0.79,0.98,28.04,50.0-60.0
50.0,1731.0,-0.47,0.11,9.69,-0.01,0.18,-0.53,28.01,50.0-60.0
50.0,1247.0,-0.11,0.13,9.75,-0.19,-0.13,-0.85,28.03,50.0-60.0
50.0,1700.0,0.15,-0.08,9.84,-0.36,0.42,-0.98,28.01,50.0-60.0
50.0,1625.0,0.06,-0.1,9.84,-0.04,0.42,-1.24,28.02,50.0-60.0
50.0,2092.0,-0.4,-0.04,9.62,0.1,0.53,-1.21,28.04,50.0-60.0
50.0,1436.0,-0.2,-0.13,9.87,-0.33,-0.05,0.37,28.03,50.0-60.0
50.0,1520.0,0.12,-0.24,9.81,-0.43,-0.19,1.53,28.03,50.0-60.0
50.0,1411.0,0.05,-0.05,9.89,0.03,0.16,1.33,28.02,50.0-60.0
50.0,1141.0,-0.15,0.04,9.72,0.09,0.5,0.75,28.04,50.0-60.0
50.0,1616.0,-0.02,0.05,9.84,-0.37,0.07,0.72,28.03,50.0-60.0
50.0,1872.0,-0.03,0.01,9.79,-0.26,0.02,-0.02,28.02,50.0-60.0
50.0,1196.0,-0.11,-0.07,9.8,-0.14,-0.15,-1.19,28.0,50.0-60.0
50.0,1218.0,-0.03,-0.06,9.92,-0.1,-0.24,-1.82,28.05,50.0-60.0
50.0,1383.0,-0.09,0.02,9.75,-0.4,0.05,-0.81,28.0,50.0-60.0
50.0,1344.0,-0.27,-0.13,9.78,-0.36,0.34,0.02,28.02,50.0-60.0
50.0,1299.0,-0.34,-0.28,9.77,-0.34,0.01,0.03,28.01,50.0-60.0
50.0,1297.0,-0.01,-0.15,9.74,-0.39,-0.39,0.72,28.01,50.0-60.0
50.0,1619.0,0.13,-0.02,9.87,-0.37,0.02,1.8,28.02,50.0-60.0
50.0,1499.0,0.01,-0.06,9.88,-0.19,0.27,1.21,28.01,50.0-60.0
50.0,1566.0,-0.35,-0.12,9.64,-0.07,0.6,-0.0,28.03,50.0-60.0
50.0,1367.0,-0.13,0.17,9.81,0.16,-0.34,-0.7,28.01,50.0-60.0
50.0,1199.0,0.18,0.19,9.8,0.07,-0.27,-0.55,28.01,50.0-60.0
50.0,1297.0,0.02,-0.0,9.85,0.09,0.22,-1.19,28.03,50.0-60.0
50.0,1109.0,-0.25,0.03,9.79,0.12,0.31,-1.54,28.03,50.0-60.0
50.0,741.0,-0.17,0.18,9.85,0.04,-0.16,-0.27,28.03,50.0-60.0
50.0,1357.0,0.31,0.11,9.94,-0.51,-0.68,1.3,28.04,50.0-60.0
50.0,871.0,-0.08,-0.01,9.73,-0.2,-0.15,1.21,28.05,50.0-60.0
50.0,983.0,-0.0,0.08,9.92,-0.1,-0.21,0.93,28.01,50.0-60.0
50.0,558.0,0.02,0.23,9.77,-0.13,-0.33,1.19,28.02,50.0-60.0
50.0,1200.0,-0.25,0.02,9.78,-0.31,0.08,0.69,28.01,50.0-60.0
50.0,1263.0,-0.01,0.06,9.78,0.16,0.11,-0.99,28.03,50.0-60.0
50.0,889.0,-0.07,0.1,9.75,0.33,-0.4,-1.45,28.01,50.0-60.0
50.0,1241.0,0.19,0.02,9.85,-0.02,-0.19,-0.82,28.01,50.0-60.0
50.0,1249.0,-0.22,-0.2,9.83,-0.16,0.4,-0.46,28.03,50.0-60.0
50.0,1398.0,-0.37,0.01,9.64,0.27,0.14,-0.35,28.04,50.0-60.0
50.0,950.0,0.06,0.09,9.85,-0.05,-0.51,0.34,28.01,50.0-60.0
50.0,1107.0,-0.06,0.02,9.76,-0.65,-0.31,1.6,28.02,50.0-60.0
50.0,1095.0,-0.08,-0.08,9.72,-0.39,0.54,1.31,28.0,50.0-60.0
50.0,1254.0,-0.11,0.04,9.92,-0.04,-0.19,0.14,28.01,50.0-60.0
50.0,913.0,-0.09,0.17,9.64,-0.1,-0.1,-0.03,28.02,50.0-60.0
50.0,1077.0,0.19,0.06,9.97,-0.2,-0.08,-0.12,28.02,50.0-60.0
50.0,896.0,0.02,-0.09,9.81,-0.07,-0.1,-1.22,28.01,50.0-60.0
50.0,1121.0,-0.4,-0.05,9.71,0.01,0.24,-1.48,28.0,50.0-60.0
50.0,757.0,0.1,0.13,9.9,-0.02,-0.42,-0.5,28.02,50.0-60.0
50.0,1633.0,-0.26,-0.09,9.72,-0.19,-0.1,0.69,28.0,50.0-60.0
50.0,777.0,0.02,-0.07,9.79,0.18,0.33,0.56,28.02,50.0-60.0
50.0,1395.0,0.04,0.14,9.9,0.07,-0.3,1.01,28.02,50.0-60.0
50.0,1291.0,0.01,0.13,9.71,-0.11,0.28,1.53,28.02,50.0-60.0
50.0,1159.0,-0.01,-0.1,9.93,-0.34,0.16,0.75,28.02,50.0-60.0
50.0,1349.0,-0.26,0.1,9.56,0.1,0.04,-0.72,28.03,50.0-60.0
50.0,1207.0,0.07,0.32,9.88,0.09,-0.19,-0.76,28.03,50.0-60.0
50.0,1083.0,-0.1,-0.05,9.66,-0.57,-0.19,-0.75,28.01,50.0-60.0
50.0,960.0,-0.14,-0.17,9.88,-0.4,0.47,-1.1,28.02,50.0-60.0
50.0,1123.0,0.01,-0.03,9.91,-0.1,-0.62,-0.84,28.03,50.0-60.0
50.0,843.0,-0.21,-0.0,9.63,-0.33,-0.33,0.79,28.02,50.0-60.0
50.0,1202.0,0.16,-0.01,9.96,-0.33,-0.24,1.42,28.02,50.0-60.0
50.0,1264.0,-0.15,0.06,9.69,0.15,-0.01,1.11,28.02,50.0-60.0
50.0,1235.0,-0.17,0.2,9.73,0.35,0.43,0.69,28.02,50.0-60.0
50.0,1157.0,0.03,-0.09,9.79,-0.39,-0.11,0.7,27.99,50.0-60.0
50.0,1257.0,-0.27,0.03,9.7,0.01,0.42,0.05,28.02,50.0-60.0
50.0,1607.0,0.04,0.07,9.76,0.3,-0.08,-1.33,28.01,50.0-60.0
50.0,1097.0,-0.07,0.19,9.76,0.1,-0.08,-1.05,28.03,50.0-60.0
50.0,1362.0,-0.07,0.04,9.8,-0.2,0.4,-0.24,28.02,50.0-60.0
50.0,1222.0,-0.31,-0.21,9.77,-0.46,0.08,-0.43,28.02,50.0-60.0
50.0,1120.0,-0.07,-0.08,9.79,-0.11,-0.21,-0.09,28.03,50.0-60.0
50.0,827.0,-0.01,0.1,9.82,-0.33,-0.21,1.42,28.02,50.0-60.0
50.0,1164.0,-0.23,0.01,9.74,-0.36,0.48,1.4,27.99,50.0-60.0
50.0,1350.0,-0.22,-0.01,9.81,-0.11,0.01,0.67,28.01,50.0-60.0
50.0,1023.0,-0.19,0.22,9.71,0.18,-0.02,0.05,28.0,50.0-60.0
50.0,1305.0,0.03,-0.1,9.78,-0.33,-0.02,-0.05,28.0,50.0-60.0
50.0,1249.0,-0.19,-0.24,9.8,-0.25,0.07,-1.14,28.0,50.0-60.0
50.0,1576.0,0.05,-0.03,9.83,0.24,-0.01,-1.53,28.01,50.0-60.0
50.0,624.0,-0.23,0.11,9.77,0.09,-0.15,-0.67,28.02,50.0-60.0
50.0,1692.0,-0.0,-0.07,9.79,-0.11,0.25,0.44,28.01,50.0-60.0
50.0,1392.0,-0.09,0.1,9.94,-0.02,-0.34,0.56,28.01,50.0-60.0
50.0,1211.0,0.0,-0.01,9.76,-0.04,0.16,0.44,28.0,50.0-60.0
50.0,1069.0,-0.05,0.09,9.79,-0.49,-0.28,1.46,28.03,50.0-60.0
50.0,1015.0,-0.21,0.05,9.67,-0.28,0.28,0.99,28.0,50.0-60.0
50.0,1522.0,0.05,0.1,9.83,0.03,-0.13,-0.37,27.99,50.0-60.0
50.0,1279.0,-0.22,0.17,9.79,0.12,-0.05,-0.73,28.01,50.0-60.0
50.0,1488.0,0.18,-0.06,9.91,-0.48,-0.45,-0.44,28.02,50.0-60.0
50.0,1340.0,-0.12,-0.13,9.86,-0.22,0.04,-1.11,28.02,50.0-60.0
50.0,1626.0,-0.07,-0.1,9.73,0.09,-0.02,-1.02,28.0,50.0-60.0
50.0,1035.0,-0.16,0.11,9.8,0.06,-0.27,0.14,28.01,50.0-60.0
50.0,1728.0,-0.02,-0.16,9.75,-0.23,0.01,1.1,28.01,50.0-60.0
50.0,1465.0,-0.17,0.08,9.7,0.19,0.28,0.78,28.01,50.0-60.0
50.0,1597.0,-0.17,0.26,9.81,0.21,-0.01,0.78,27.99,50.0-60.0
50.0,1520.0,-0.32,0.1,9.67,-0.31,0.02,1.01,28.02,50.0-60.0
50.0,1378.0,0.03,-0.09,9.82,-0.25,0.3,0.11,27.99,50.0-60.0
50.0,1726.0,-0.02,0.06,9.79,-0.01,-0.3,-1.14,28.02,50.0-60.0
50.0,1467.0,-0.09,0.19,9.76,-0.02,-0.3,-0.78,28.02,50.0-60.0
50.0,1905.0,0.05,-0.13,9.84,-0.55,-0.07,-0.43,28.02,50.0-60.0
50.0,1163.0,-0.11,-0.13,9.8,-0.2,0.16,-0.56,28.0,50.0-60.0
50.0,1325.0,-0.1,-0.08,9.85,-0.05,-0.24,-0.17,28.01,50.0-60.0
50.0,1742.0,-0.01,-0.05,9.83,-0.46,-0.27,1.28,28.0,50.0-60.0
50.0,2020.0,0.04,-0.04,9.69,-0.23,0.34,1.5,28.02,50.0-60.0
50.0,1939.0,-0.2,-0.0,9.75,0.15,0.36,0.55,28.03,50.0-60.0
50.0,1504.0,-0.02,0.24,9.75,0.24,-0.05,0.29,28.0,50.0-60.0
50.0,2063.0,-0.09,0.06,9.65,-0.19,0.14,0.21,28.0,50.0-60.0
50.0,1584.0,-0.01,-0.13,9.74,-0.14,-0.11,-0.69,28.02,50.0-60.0
50.0,1911.0,-0.18,0.07,9.74,0.19,0.1,-1.42,28.03,50.0-60.0
50.0,1516.0,0.09,0.19,9.89,-0.13,-0.19,-0.41,28.01,50.0-60.0
50.0,1744.0,-0.26,-0.05,9.58,-0.28,0.3,0.18,28.01,50.0-60.0
50.0,1806.0,-0.12,-0.11,10.05,-0.25,-0.18,0.08,28.01,50.0-60.0
50.0,1808.0,-0.1,0.03,9.6,-0.17,-0.16,0.53,28.02,50.0-60.0
50.0,2125.0,0.09,-0.08,9.89,-0.57,0.04,1.42,28.01,50.0-60.0
50.0,1776.0,-0.23,-0.18,9.75,-0.33,-0.02,0.58,28.02,50.0-60.0
50.0,1999.0,0.01,0.04,9.83,0.12,0.08,-0.2,28.0,50.0-60.0
50.0,1423.0,-0.09,0.2,9.82,0.09,-0.3,-0.34,28.02,50.0-60.0
50.0,1907.0,-0.05,-0.05,9.78,-0.13,0.19,-0.29,28.01,50.0-60.0
50.0,1901.0,-0.05,0.02,9.88,0.18,0.02,-1.14,28.01,50.0-60.0
50.0,1849.0,0.05,0.06,9.71,0.22,-0.02,-1.04,28.0,50.0-60.0
50.0,1759.0,-0.14,0.05,9.77,-0.26,-0.19,0.32,28.0,50.0-60.0
50.0,1810.0,0.11,-0.15,9.81,-0.31,0.24,0.73,28.02,50.0-60.0
50.0,1920.0,-0.19,0.09,9.65,0.01,0.13,0.53,28.0,50.0-60.0
50.0,1808.0,-0.07,0.08,9.86,-0.13,-0.1,0.81,28.0,50.0-60.0
50.0,2027.0,-0.08,0.02,9.72,-0.49,0.05,1.13,28.0,50.0-60.0
50.0,1606.0,-0.0,-0.01,9.86,-0.13,0.14,-0.12,28.01,50.0-60.0
50.0,1561.0,-0.14,0.03,9.78,0.01,-0.27,-0.92,28.0,50.0-60.0
50.0,1040.0,0.04,0.17,9.89,0.07,-0.19,-0.6,28.0,50.0-60.0
50.0,1502.0,-0.08,-0.12,9.72,-0.16,0.08,-0.47,28.0,50.0-60.0
50.0,1637.0,-0.26,-0.03,9.78,0.13,0.07,-0.93,28.02,50.0-60.0
50.0,1473.0,-0.13,-0.05,9.79,0.13,-0.21,-0.44,28.03,50.0-60.0
50.0,1585.0,-0.02,-0.06,9.8,-0.39,-0.28,0.99,28.02,50.0-60.0
50.0,1488.0,-0.24,-0.13,9.73,-0.17,0.22,1.01,28.0,50.0-60.0
50.0,1766.0,-0.03,0.16,9.8,0.16,0.02,0.44,27.99,50.0-60.0
50.0,1573.0,-0.03,0.21,9.81,-0.04,-0.3,0.6,28.01,50.0-60.0
50.0,1906.0,0.04,-0.01,9.8,-0.4,0.02,0.6,28.01,50.0-60.0
50.0,2065.0,-0.25,0.01,9.84,-0.02,0.1,-0.93,28.02,50.0-60.0
50.0,1428.0,0.11,0.02,9.81,-0.05,-0.07,-1.16,27.99,50.0-60.0
50.0,1511.0,-0.25,0.06,9.73,-0.16,0.07,-0.47,28.02,50.0-60.0
50.0,1429.0,-0.06,-0.18,9.81,-0.25,0.25,-0.17,28.01,50.0-60.0
50.0,1646.0,-0.08,0.08,9.72,0.19,-0.05,-0.23,28.02,50.0-60.0
50.0,988.0,-0.18,0.16,9.88,0.13,-0.01,0.92,28.02,50.0-60.0
50.0,1439.0,-0.21,-0.06,9.75,-0.4,0.04,1.37,28.03,50.0-60.0
50.0,992.0,0.06,-0.02,9.96,-0.01,0.22,0.76,27.99,50.0-60.0
50.0,1266.0,-0.15,0.2,9.62,0.19,-0.22,0.12,27.99,50.0-60.0
50.0,1355.0,-0.05,0.04,9.84,-0.26,0.07,0.12,28.0,50.0-60.0
50.0,1530.0,-0.05,-0.01,9.64,-0.2,-0.05,-0.05,28.02,50.0-60.0
50.0,1533.0,-0.14,-0.05,9.85,0.07,0.5,-1.39,28.0,50.0-60.0
50.0,1453.0,-0.05,-0.03,9.87,-0.17,-0.73,-0.84,27.99,50.0-60.0
50.0,1553.0,-0.07,-0.08,9.65,-0.48,0.22,0.27,28.01,50.0-60.0
50.0,982.0,-0.14,-0.19,9.82,-0.42,-0.27,0.27,27.99,50.0-60.0
50.0,1264.0,-0.13,0.15,9.69,0.15,0.1,0.31,28.0,50.0-60.0
50.0,738.0,-0.06,0.2,9.88,-0.08,0.01,1.28,28.02,50.0-60.0
50.0,1213.0,-0.09,-0.03,9.69,-0.17,0.43,1.07,28.03,50.0-60.0
50.0,1415.0,-0.11,-0.11,9.83,-0.28,-0.07,2.75,27.49,50.0-60.0
50.0,1283.0,-0.05,0.02,9.8,-0.3,-0.01,3.71,27.5,50.0-60.0
50.0,1253.0,-0.05,0.05,9.8,-0.26,-0.04,3.39,27.5,50.0-60.0
50.0,2053.0,-0.04,0.12,9.79,-0.13,-0.08,1.75,27.49,50.0-60.0
50.0,1582.0,-0.02,0.13,9.8,0.06,-0.01,-0.75,27.49,50.0-60.0
50.0,1161.0,-0.06,0.07,9.84,0.19,0.01,-2.85,27.5,50.0-60.0
50.0,1090.0,-0.09,0.05,9.79,0.24,0.04,-3.54,27.51,50.0-60.0
50.0,1263.0,-0.11,-0.02,9.82,0.16,0.01,-3.1,27.51,50.0-60.0
50.0,1473.0,-0.16,-0.01,9.77,0.1,0.01,-1.04,27.5,50.0-60.0
50.0,1245.0,-0.07,-0.12,9.83,-0.26,0.02,1.25,27.5,50.0-60.0
50.0,1570.0,-0.11,-0.04,9.81,-0.23,-0.15,2.23,27.49,50.0-60.0
50.0,2221.0,-0.03,-0.03,9.85,-0.28,-0.1,2.96,27.52,50.0-60.0
50.0,413.0,-0.11,0.01,9.76,-0.37,0.05,2.3,27.48,50.0-60.0
50.0,608.0,0.09,0.29,9.84,0.12,-0.15,1.42,27.48,50.0-60.0
50.0,1223.0,-0.04,-0.13,9.82,-0.33,-0.11,0.41,27.49,50.0-60.0
50.0,1303.0,-0.11,-0.05,9.76,-0.34,-0.05,-1.02,27.52,50.0-60.0
50.0,1179.0,-0.02,0.37,9.8,0.64,0.11,-1.65,27.51,50.0-60.0
50.0,1435.0,-0.07,-0.01,9.85,0.33,-0.11,-1.91,27.51,50.0-60.0
50.0,1919.0,-0.13,-0.04,9.68,-0.14,0.05,-1.42,27.49,50.0-60.0
50.0,1917.0,-0.01,0.32,9.77,0.51,0.18,-0.03,27.51,50.0-60.0
50.0,1558.0,-0.1,0.11,9.88,0.33,-0.11,1.31,27.5,50.0-60.0
50.0,1805.0,-0.12,-0.16,9.79,-0.68,-0.19,2.04,27.5,50.0-60.0
50.0,1582.0,0.04,-0.03,9.9,-0.13,-0.28,2.03,27.51,50.0-60.0
50.0,1506.0,-0.15,0.27,9.8,0.19,-0.02,1.19,27.51,50.0-60.0
50.0,1391.0,-0.1,-0.01,9.84,-0.13,-0.13,-0.17,27.49,50.0-60.0
50.0,1678.0,0.05,0.14,9.85,0.13,-0.11,-1.37,27.49,50.0-60.0
50.0,1382.0,-0.07,-0.13,9.83,-0.11,-0.02,-1.91,27.49,50.0-60.0
50.0,806.0,-0.1,-0.11,9.79,-0.25,-0.11,-1.89,27.51,50.0-60.0
50.0,1127.0,-0.02,0.05,9.85,0.25,0.1,-0.92,27.5,50.0-60.0
50.0,1279.0,-0.17,-0.4,9.82,-0.52,-0.27,0.35,27.52,50.0-60.0
50.0,1270.0,-0.15,0.25,9.73,-0.02,0.04,1.59,27.5,50.0-60.0
50.0,1092.0,-0.03,0.26,9.72,0.19,0.24,2.11,27.5,50.0-60.0
50.0,1310.0,-0.14,-0.11,9.94,-0.46,-0.07,1.95,27.5,50.0-60.0
50.0,1385.0,-0.19,-0.15,9.75,-0.48,0.24,0.72,27.49,50.0-60.0
50.0,1453.0,0.04,0.37,9.81,0.28,-0.04,-0.03,27.51,50.0-60.0
50.0,1564.0,0.0,0.15,9.93,0.27,-0.05,-1.6,27.51,50.0-60.0
50.0,1794.0,0.04,-0.16,9.91,-0.07,-0.04,-2.43,27.51,50.0-60.0
50.0,1824.0,-0.19,-0.31,9.84,-0.23,0.25,-2.04,27.49,50.0-60.0
50.0,1660.0,-0.1,0.17,9.83,0.51,0.07,-1.07,27.48,50.0-60.0
50.0,2020.0,-0.11,-0.03,9.76,-0.1,-0.02,0.55,27.51,50.0-60.0
50.0,1732.0,-0.06,-0.12,9.8,-0.55,-0.04,2.06,27.49,50.0-60.0
50.0,1695.0,-0.03,0.25,9.75,-0.16,0.01,2.76,27.51,50.0-60.0
50.0,1600.0,-0.03,0.04,9.83,-0.3,0.21,2.41,27.48,50.0-60.0
50.0,1855.0,-0.21,0.04,9.73,-0.46,-0.04,1.21,27.5,50.0-60.0
50.0,1356.0,-0.27,0.17,9.66,-0.1,0.21,-0.79,27.51,50.0-60.0
50.0,1173.0,0.06,-0.04,9.83,0.19,-0.11,-2.46,27.51,50.0-60.0
50.0,1383.0,-0.12,-0.11,9.74,0.22,-0.07,-3.02,27.5,50.0-60.0
50.0,1216.0,-0.09,-0.04,9.76,0.36,-0.02,-2.35,27.51,50.0-60.0
50.0,627.0,-0.06,-0.04,9.94,0.27,-0.13,-0.49,27.5,50.0-60.0
50.0,717.0,-0.1,-0.03,9.82,-0.02,-0.08,1.75,27.52,50.0-60.0
50.0,1233.0,-0.23,0.05,9.8,-0.2,0.05,2.9,27.5,50.0-60.0
50.0,1358.0,-0.09,0.08,9.75,-0.25,0.22,3.46,27.5,50.0-60.0
50.0,1041.0,0.16,0.13,9.85,-0.19,0.07,2.09,27.5,50.0-60.0
50.0,1582.0,0.0,0.07,9.87,-0.11,-0.25,-0.43,27.49,50.0-60.0
50.0,1802.0,-0.14,0.08,9.8,0.01,0.01,-2.0,27.49,50.0-60.0
50.0,1808.0,0.06,0.1,9.86,0.16,-0.04,-3.23,27.5,50.0-60.0
50.0,1698.0,-0.13,-0.05,9.8,-0.04,0.08,-2.73,27.5,50.0-60.0
50.0,1983.0,-0.23,-0.18,9.77,-0.31,0.16,-0.79,27.51,50.0-60.0
50.0,2034.0,-0.25,-0.11,9.81,-0.22,-0.02,0.63,27.49,50.0-60.0
50.0,1499.0,-0.07,-0.17,9.78,-0.19,0.45,2.12,27.51,50.0-60.0
50.0,1535.0,-0.05,-0.06,9.86,-0.17,-0.3,2.55,27.51,50.0-60.0
50.0,1396.0,0.0,0.1,9.78,0.04,-0.19,2.03,27.49,50.0-60.0
50.0,1079.0,-0.01,0.15,9.84,0.06,0.31,1.28,27.5,50.0-60.0
50.0,976.0,-0.1,0.25,9.77,0.1,0.34,-0.03,27.49,50.0-60.0
50.0,1136.0,-0.14,0.06,9.77,0.01,0.22,-1.56,27.51,50.0-60.0
50.0,1040.0,-0.32,-0.12,9.65,-0.07,-0.07,-2.85,27.5,50.0-60.0
50.0,1179.0,0.01,0.11,9.84,0.33,-0.24,-2.9,27.49,50.0-60.0
50.0,1303.0,0.04,-0.1,9.94,0.09,0.11,-1.57,27.51,50.0-60.0
50.0,1578.0,-0.21,-0.23,9.76,-0.62,0.21,0.79,27.5,50.0-60.0
50.0,1869.0,-0.01,0.09,9.92,-0.22,0.16,2.38,27.52,50.0-60.0
50.0,1745.0,-0.29,-0.06,9.69,-0.4,0.21,3.17,27.53,50.0-60.0
50.0,1747.0,-0.05,-0.24,9.88,-0.51,-0.36,2.01,27.51,50.0-60.0
50.0,2160.0,0.15,0.06,9.82,-0.05,-0.24,0.38,27.5,50.0-60.0
50.0,1707.0,0.13,0.23,9.89,0.38,0.11,-0.67,27.51,50.0-60.0
50.0,1431.0,-0.13,-0.0,9.84,-0.13,0.18,-1.71,27.49,50.0-60.0
50.0,1535.0,-0.27,-0.21,9.75,-0.37,-0.21,-2.27,27.49,50.0-60.0
50.0,1193.0,-0.22,-0.09,9.76,0.25,-0.21,-2.24,27.52,50.0-60.0
50.0,790.0,0.05,0.12,9.81,0.5,-0.36,-1.39,27.49,50.0-60.0
50.0,1121.0,0.17,0.08,9.91,-0.08,-0.07,0.67,27.51,50.0-60.0
50.0,1079.0,-0.08,-0.02,9.83,-0.51,0.45,2.69,27.51,50.0-60.0
50.0,1182.0,-0.32,-0.16,9.74,-0.75,0.19,2.96,27.5,50.0-60.0
50.0,784.0,-0.27,0.12,9.72,-0.17,-0.39,2.17,27.5,50.0-60.0
50.0,1337.0,0.21,0.22,9.86,0.22,-0.53,0.37,27.5,50.0-60.0
50.0,1558.0,0.28,0.23,9.88,0.32,-0.02,-0.99,27.51,50.0-60.0
50.0,1458.0,-0.27,0.16,9.67,0.07,0.62,-1.8,27.5,50.0-60.0
50.0,1839.0,-0.49,-0.32,9.72,-0.51,0.22,-2.26,27.5,50.0-60.0
50.0,1883.0,-0.32,-0.2,9.77,0.21,-0.27,-2.32,27.48,50.0-60.0
50.0,1875.0,0.25,-0.07,9.88,0.36,-0.62,-0.64,27.51,50.0-60.0
50.0,1578.0,0.11,0.05,9.83,-0.05,0.37,1.66,27.51,50.0-60.0
50.0,1872.0,-0.17,0.04,9.8,-0.31,0.72,2.73,27.53,50.0-60.0
50.0,1517.0,-0.37,-0.06,9.81,-0.45,0.21,2.67,27.51,50.0-60.0
50.0,1056.0,-0.25,0.05,9.72,-0.13,-0.79,1.19,27.49,50.0-60.0
50.0,896.0,0.53,0.13,10.01,-0.2,-0.69,-0.14,27.49,50.0-60.0
50.0,1065.0,0.35,0.16,9.86,-0.19,0.13,-0.73,27.5,50.0-60.0
50.0,1111.0,-0.17,-0.03,9.79,-0.23,1.01,-1.83,27.51,50.0-60.0
50.0,1243.0,-0.59,-0.02,9.74,0.3,0.04,-2.59,27.5,50.0-60.0
50.0,1833.0,-0.0,-0.07,9.83,0.35,-0.94,-1.62,27.5,50.0-60.0
50.0,1908.0,0.31,0.01,9.89,0.03,-0.85,-0.14,27.5,50.0-60.0
50.0,1751.0,0.29,-0.07,9.88,-0.43,0.54,1.98,27.5,50.0-60.0
50.0,1553.0,-0.42,-0.18,9.8,-0.28,0.83,2.37,27.47,50.0-60.0
50.0,1747.0,-0.57,-0.0,9.7,-0.08,-0.51,1.83,27.49,50.0-60.0
50.0,1649.0,-0.08,0.12,9.79,0.16,-1.08,1.42,27.49,50.0-60.0
50.0,1487.0,0.46,0.2,9.94,-0.08,-0.48,0.44,27.49,50.0-60.0
50.0,1163.0,-0.05,-0.04,9.81,-0.17,0.98,-1.39,27.51,50.0-60.0
50.0,1361.0,-0.55,0.0,9.78,0.24,0.59,-2.94,27.5,50.0-60.0
50.0,1378.0,-0.51,0.06,9.62,0.28,-0.24,-2.66,27.49,50.0-60.0
50.0,503.0,0.29,0.0,9.98,-0.1,-0.88,-0.98,27.49,50.0-60.0
50.0,1384.0,0.32,-0.15,9.83,-0.46,0.36,0.84,27.5,50.0-60.0
50.0,953.0,-0.17,-0.18,9.84,-0.33,0.83,1.46,27.5,50.0-60.0
50.0,1535.0,-0.37,0.01,9.77,-0.11,0.34,1.92,27.52,50.0-60.0
50.0,849.0,-0.17,0.1,9.77,-0.22,-0.77,2.33,27.48,50.0-60.0
50.0,2032.0,0.23,0.04,9.97,-0.43,-0.4,1.63,27.51,50.0-60.0
50.0,1569.0,0.09,0.15,9.8,0.36,0.66,-0.7,27.48,50.0-60.0
50.0,1456.0,-0.28,0.01,9.79,0.27,0.42,-2.09,27.5,50.0-60.0
50.0,1775.0,-0.33,0.04,9.86,0.13,-0.02,-2.29,27.49,50.0-60.0
50.0,1748.0,0.03,0.07,9.8,-0.05,-0.51,-1.37,27.52,50.0-60.0
50.0,797.0,-0.06,-0.04,9.92,0.09,-0.22,-0.72,27.48,50.0-60.0
50.0,1527.0,0.14,-0.11,9.8,-0.1,-0.1,-0.12,27.51,50.0-60.0
50.0,1335.0,-0.17,0.1,9.74,-0.13,0.04,1.62,27.52,50.0-60.0
50.0,880.0,-0.05,0.13,9.92,-0.31,0.01,2.82,27.51,50.0-60.0
50.0,840.0,0.02,-0.16,9.9,-0.4,-0.54,1.69,27.49,50.0-60.0
50.0,1159.0,-0.09,-0.04,9.87,-0.05,-0.15,0.46,27.5,50.0-60.0
50.0,1456.0,-0.01,0.1,9.81,0.16,-0.08,-0.89,27.5,50.0-60.0
50.0,1535.0,-0.02,0.01,9.77,-0.17,0.48,-1.48,27.51,50.0-60.0
50.0,1371.0,-0.39,-0.32,9.76,-0.14,0.07,-2.23,27.49,50.0-60.0
50.0,1808.0,-0.48,-0.02,9.64,0.44,0.47,-2.12,27.51,50.0-60.0
50.0,2108.0,0.13,0.01,9.82,0.28,-0.1,-0.79,27.5,50.0-60.0
50.0,2165.0,0.02,-0.17,9.71,-0.49,0.27,1.39,27.5,50.0-60.0
50.0,1835.0,-0.22,-0.24,9.75,-0.63,0.71,2.04,27.48,50.0-60.0
50.0,2108.0,-0.66,0.06,9.57,-0.05,0.69,1.91,27.5,50.0-60.0
50.0,1685.0,0.04,0.1,9.78,-0.23,-0.1,1.54,27.49,50.0-60.0
50.0,1680.0,0.29,-0.07,9.86,-0.75,0.01,0.81,27.49,50.0-60.0
50.0,1535.0,-0.16,-0.2,9.72,-0.49,0.85,-1.13,27.51,50.0-60.0
50.0,1806.0,-0.32,-0.02,9.79,0.09,0.66,-2.2,27.51,50.0-60.0
50.0,1650.0,-0.13,0.01,9.72,-0.02,0.07,-2.27,27.51,50.0-60.0
50.0,1010.0,-0.09,-0.13,9.71,-0.3,0.01,-0.95,27.49,50.0-60.0
50.0,1535.0,-0.07,-0.38,9.78,-0.46,0.5,-0.0,27.51,50.0-60.0
50.0,1535.0,-0.24,-0.07,9.85,0.1,0.31,0.56,27.49,50.0-60.0
50.0,1727.0,-0.0,0.02,9.84,-0.07,0.08,1.74,27.52,50.0-60.0
50.0,1694.0,-0.22,-0.03,9.67,-0.49,0.07,2.56,27.49,50.0-60.0
50.0,1954.0,-0.01,-0.19,9.85,-0.36,0.11,1.1,27.49,50.0-60.0
50.0,1655.0,-0.02,0.2,9.82,0.33,-0.07,-0.17,27.49,50.0-60.0
50.0,1457.0,0.06,0.18,9.89,0.16,-0.07,-1.3,27.52,50.0-60.0
50.0,1328.0,-0.1,-0.05,9.84,-0.34,0.27,-1.54,27.49,50.0-60.0
50.0,1327.0,-0.24,-0.25,9.95,-0.26,0.21,-2.03,27.49,50.0-60.0
50.0,1202.0,0.02,-0.03,9.76,0.24,-0.31,-1.75,27.5,50.0-60.0
50.0,885.0,-0.17,-0.06,9.83,-0.07,-0.53,-0.0,27.5,50.0-60.0
50.0,1291.0,0.1,-0.13,9.8,-0.55,0.42,1.97,27.5,50.0-60.0
50.0,1167.0,-0.12,-0.12,9.97,-0.25,0.04,1.82,27.47,50.0-60.0
50.0,1327.0,-0.4,0.0,9.69,0.1,0.25,1.54,27.49,50.0-60.0
50.0,1272.0,0.15,0.19,9.85,0.03,-0.62,1.17,27.5,50.0-60.0
50.0,1840.0,0.06,0.04,9.78,-0.28,0.07,0.27,27.52,50.0-60.0
50.0,1243.0,-0.23,0.09,9.76,0.35,0.57,-1.77,27.51,50.0-60.0
50.0,1461.0,-0.21,0.03,9.67,0.25,0.05,-2.3,27.52,50.0-60.0
50.0,1924.0,-0.18,0.06,9.93,0.06,-0.21,-1.66,27.51,50.0-60.0
50.0,2001.0,0.03,-0.14,9.74,-0.33,0.07,-0.2,27.49,50.0-60.0
50.0,1416.0,0.05,0.03,9.85,0.09,0.37,0.23,27.49,50.0-60.0
50.0,1483.0,-0.3,-0.07,9.72,-0.19,0.21,0.95,27.49,50.0-60.0
50.0,1151.0,-0.01,0.04,9.85,-0.51,-0.13,2.27,27.5,50.0-60.0
50.0,1243.0,-0.11,-0.08,9.77,-0.49,0.13,2.03,27.52,50.0-60.0
50.0,1222.0,-0.22,0.07,9.79,0.18,0.13,0.12,27.51,50.0-60.0
50.0,1121.0,0.15,0.02,9.78,0.03,-0.21,-0.66,27.49,50.0-60.0
50.0,1693.0,-0.3,-0.1,9.78,-0.33,0.19,-1.14,27.49,50.0-60.0
50.0,1635.0,-0.05,-0.28,9.77,-0.22,0.43,-1.91,27.5,50.0-60.0
50.0,1712.0,-0.23,-0.05,9.61,0.3,0.34,-1.88,27.51,50.0-60.0
50.0,1841.0,-0.14,-0.04,9.87,0.19,-0.13,-0.96,27.49,50.0-60.0
50.0,1961.0,-0.01,-0.13,9.7,-0.54,0.11,1.07,27.49,50.0-60.0
50.0,1857.0,-0.36,-0.23,9.73,-0.42,0.8,1.53,27.52,50.0-60.0
50.0,1520.0,-0.05,0.1,9.81,-0.01,-0.05,1.5,27.51,50.0-60.0
50.0,1508.0,0.01,0.06,9.83,-0.2,-0.39,1.36,27.51,50.0-60.0
50.0,1603.0,0.09,-0.06,9.82,-0.55,-0.11,0.93,27.51,50.0-60.0
50.0,880.0,0.19,-0.05,10.04,-0.22,0.05,-1.04,27.51,50.0-60.0
50.0,1106.0,-0.2,-0.01,9.85,0.04,-0.36,-2.06,27.51,50.0-60.0
50.0,667.0,-0.12,0.17,9.81,0.21,-0.05,-1.77,27.5,50.0-60.0
50.0,1199.0,0.08,-0.1,9.92,-0.22,-0.33,-0.78,27.52,50.0-60.0
50.0,881.0,-0.14,0.01,9.89,0.12,-0.21,-0.43,27.5,50.0-60.0
50.0,1445.0,-0.21,-0.07,9.67,0.15,0.13,0.73,27.5,50.0-60.0
50.0,1486.0,-0.1,0.16,9.85,-0.01,-0.19,2.0,27.5,50.0-60.0
50.0,1666.0,-0.21,0.01,9.66,-0.2,0.39,2.2,27.49,50.0-60.0
50.0,1858.0,-0.25,0.13,9.8,0.24,0.18,0.84,27.49,50.0-60.0
50.0,1793.0,0.15,0.16,9.82,0.07,-0.37,-0.06,27.51,50.0-60.0
50.0,1975.0,-0.05,0.03,9.86,-0.28,0.11,-0.34,27.51,50.0-60.0
50.0,1589.0,-0.0,-0.14,9.83,-0.28,0.36,-1.51,27.5,50.0-60.0
50.0,1614.0,-0.28,-0.07,9.75,0.13,0.18,-2.15,27.5,50.0-60.0
50.0,1296.0,0.08,0.11,9.83,-0.01,-0.39,-0.81,27.51,50.0-60.0
50.0,1340.0,-0.23,-0.08,9.77,-0.49,0.22,0.38,27.52,50.0-60.0
50.0,817.0,-0.11,-0.11,9.87,-0.23,0.5,0.92,27.49,50.0-60.0
50.0,1102.0,-0.05,0.03,9.78,-0.01,-0.13,1.33,27.51,50.0-60.0
50.0,1182.0,-0.22,0.13,9.71,-0.17,-0.22,1.95,27.52,50.0-60.0
50.0,1294.0,0.18,0.01,9.94,-0.31,-0.16,1.69,27.49,50.0-60.0
50.0,1391.0,-0.28,0.14,9.84,0.21,0.05,-0.23,27.49,50.0-60.0
50.0,1627.0,0.05,0.11,9.76,0.33,0.08,-1.4,27.52,50.0-60.0
50.0,1783.0,-0.03,-0.04,9.89,-0.28,-0.25,-1.24,27.51,50.0-60.0
50.0,1441.0,-0.19,-0.05,9.69,-0.05,0.31,-1.21,27.52,50.0-60.0
50.0,2129.0,-0.12,-0.0,9.95,0.18,-0.08,-1.21,27.51,50.0-60.0
50.0,1727.0,0.01,0.09,9.73,0.04,-0.3,0.23,27.5,50.0-60.0
50.0,1413.0,-0.05,-0.07,9.77,-0.42,0.27,1.77,27.51,50.0-60.0
50.0,1013.0,-0.05,-0.23,9.82,-0.63,-0.01,1.68,27.49,50.0-60.0
50.0,1257.0,-0.29,-0.02,9.73,-0.13,0.08,1.05,27.51,50.0-60.0
50.0,1067.0,0.12,0.24,9.88,-0.01,-0.3,0.89,27.55,50.0-60.0
50.0,834.0,0.12,-0.02,9.83,-0.26,-0.07,0.08,27.5,50.0-60.0
50.0,1597.0,0.03,-0.02,9.9,-0.02,0.3,-1.25,27.51,50.0-60.0
50.0,1424.0,-0.18,0.09,9.84,0.35,-0.15,-1.94,27.49,50.0-60.0
50.0,1168.0,-0.09,0.15,9.72,0.06,-0.07,-0.9,27.49,50.0-60.0
50.0,1483.0,0.09,-0.17,9.86,-0.2,0.08,-0.2,27.48,50.0-60.0
50.0,1500.0,-0.11,0.02,9.76,0.15,0.22,0.03,27.49,50.0-60.0
50.0,1791.0,-0.23,0.16,9.77,0.22,0.19,1.07,27.49,50.0-60.0
50.0,1482.0,0.0,0.06,9.88,-0.49,-0.39,2.18,27.48,50.0-60.0
50.0,1633.0,-0.2,-0.05,9.76,-0.26,0.27,1.13,27.5,50.0-60.0
50.0,1535.0,0.11,0.12,9.87,0.07,-0.21,0.24,27.52,50.0-60.0
50.0,910.0,-0.05,0.3,9.82,0.22,-0.25,-0.44,27.47,50.0-60.0
50.0,1017.0,-0.16,-0.03,9.81,-0.2,0.11,-0.82,27.5,50.0-60.0
50.0,882.0,-0.28,-0.03,9.85,0.19,0.22,-1.89,27.5,50.0-60.0
50.0,1253.0,-0.1,-0.04,9.76,0.24,-0.33,-1.66,27.49,50.0-60.0
50.0,857.0,-0.11,0.02,9.8,0.01,-0.15,-0.06,27.5,50.0-60.0
50.0,1197.0,-0.04,-0.24,9.86,-0.37,0.27,0.92,27.53,50.0-60.0
50.0,1731.0,-0.34,0.07,9.71,0.03,0.02,1.01,27.5,50.0-60.0
50.0,1746.0,0.01,0.01,9.77,0.06,-0.08,1.31,27.5,50.0-60.0
50.0,1733.0,-0.1,0.06,9.73,-0.37,-0.18,1.62,27.48,50.0-60.0
50.0,1861.0,-0.2,-0.09,9.69,-0.2,0.45,0.15,27.49,50.0-60.0
50.0,2265.0,0.03,0.09,9.91,0.15,-0.15,-1.19,27.49,50.0-60.0
50.0,1609.0,-0.09,0.11,9.8,0.06,-0.01,-1.4,27.49,50.0-60.0
50.0,1563.0,-0.04,-0.07,9.77,-0.37,0.07,-0.95,27.52,50.0-60.0
50.0,1234.0,-0.19,-0.05,9.8,0.16,0.24,-1.14,27.49,50.0-60.0
50.0,1302.0,-0.22,0.02,9.72,0.13,-0.02,-0.18,27.51,50.0-60.0
50.0,785.0,0.13,0.05,9.96,-0.11,-0.24,1.04,27.5,50.0-60.0
50.0,858.0,-0.26,-0.06,9.67,-0.3,0.22,1.85,27.49,50.0-60.0
50.0,1311.0,-0.22,0.12,9.79,0.18,0.24,1.13,27.52,50.0-60.0
50.0,1343.0,0.25,0.13,9.93,0.04,-0.45,0.75,27.49,50.0-60.0
50.0,1369.0,0.04,-0.03,9.88,-0.45,-0.1,0.61,27.49,50.0-60.0
50.0,1390.0,-0.07,-0.2,9.76,-0.39,0.04,-0.89,27.49,50.0-60.0
50.0,2073.0,-0.3,-0.01,9.77,0.19,0.28,-2.0,27.49,50.0-60.0
50.0,1842.0,0.07,0.16,9.8,0.04,-0.28,-1.1,27.51,50.0-60.0
50.0,1997.0,-0.21,-0.09,9.66,-0.28,0.42,-0.44,27.52,50.0-60.0
50.0,1647.0,-0.05,-0.09,9.8,-0.05,0.48,-0.09,27.5,50.0-60.0
50.0,1517.0,-0.23,0.1,9.78,-0.02,-0.3,0.79,27.47,50.0-60.0
50.0,1470.0,0.06,0.09,9.96,-0.28,-0.04,2.01,27.49,50.0-60.0
50.0,1023.0,-0.07,-0.01,9.77,-0.49,0.02,1.89,27.51,50.0-60.0
50.0,1422.0,-0.0,0.1,9.9,0.22,0.11,0.46,27.51,50.0-60.0
50.0,896.0,0.14,0.12,9.86,0.1,-0.18,-0.29,27.49,50.0-60.0
50.0,1184.0,-0.17,-0.05,9.7,-0.25,0.33,-0.6,27.49,50.0-60.0
50.0,940.0,-0.02,-0.21,9.83,-0.17,-0.07,-1.39,27.49,50.0-60.0
50.0,1587.0,-0.22,-0.04,9.83,0.32,0.28,-1.8,27.49,50.0-60.0
50.0,1518.0,0.11,0.1,9.84,0.01,-0.39,-0.32,27.5,50.0-60.0
50.0,1600.0,-0.03,-0.01,9.75,-0.2,0.4,0.58,27.5,50.0-60.0
50.0,1477.0,-0.05,-0.1,9.86,-0.07,0.3,0.76,27.48,50.0-60.0
50.0,1835.0,-0.29,0.03,9.79,-0.16,-0.4,1.14,27.48,50.0-60.0
50.0,1635.0,0.06,-0.01,9.85,-0.42,0.08,1.63,27.5,50.0-60.0
50.0,1559.0,-0.0,0.13,9.76,-0.25,-0.01,1.25,27.52,50.0-60.0
50.0,1728.0,-0.06,0.21,9.82,0.32,0.5,-0.58,27.51,50.0-60.0
50.0,1479.0,0.13,0.18,9.84,0.27,-0.24,-1.13,27.47,50.0-60.0
50.0,1206.0,-0.11,-0.04,9.7,-0.19,0.25,-0.79,27.49,50.0-60.0
50.0,755.0,-0.0,-0.32,9.86,-0.3,-0.31,-1.17,27.51,50.0-60.0
50.0,1200.0,-0.31,-0.05,9.77,0.16,0.28,-0.99,27.51,50.0-60.0
50.0,811.0,0.19,0.16,9.92,0.07,-0.44,0.69,27.5,50.0-60.0
50.0,1152.0,-0.17,0.01,9.73,-0.31,-0.18,1.72,27.49,50.0-60.0
50.0,1166.0,-0.05,-0.1,9.89,-0.08,0.18,1.21,27.5,50.0-60.0
50.0,1664.0,-0.19,0.02,9.8,-0.04,-0.42,0.81,27.48,50.0-60.0
50.0,1850.0,0.13,-0.01,10.0,-0.37,-0.24,0.76,27.49,50.0-60.0
50.0,1671.0,-0.11,-0.12,9.77,-0.28,0.11,-0.56,27.5,50.0-60.0
50.0,1909.0,-0.06,0.11,9.91,0.21,0.37,-1.34,27.47,50.0-60.0
50.0,1629.0,0.11,0.1,9.84,0.25,-0.37,-1.37,27.49,50.0-60.0
50.0,1338.0,-0.18,-0.09,9.66,-0.36,0.18,-0.4,27.51,50.0-60.0
50.0,899.0,-0.02,-0.1,9.89,0.09,0.21,-0.37,27.5,50.0-60.0
50.0,1446.0,-0.37,-0.04,9.68,0.13,0.34,0.02,27.5,50.0-60.0
50.0,932.0,-0.02,0.16,9.8,0.01,-0.02,1.46,27.5,50.0-60.0
50.0,970.0,-0.1,-0.03,9.74,-0.26,-0.01,1.66,27.5,50.0-60.0
50.0,1360.0,-0.24,0.15,9.78,0.22,0.13,0.5,27.49,50.0-60.0
50.0,1390.0,-0.04,0.03,9.86,0.09,-0.19,-0.02,27.5,50.0-60.0
50.0,1482.0,-0.05,0.01,9.8,-0.31,-0.02,-0.09,27.5,50.0-60.0
50.0,1203.0,-0.27,-0.16,9.73,-0.14,0.54,-1.19,27.52,50.0-60.0
50.0,2065.0,-0.1,0.01,9.83,0.16,0.01,-1.59,27.49,50.0-60.0
50.0,1851.0,0.01,0.16,9.77,0.18,-0.18,-0.89,27.49,50.0-60.0
