Speed,Voice,Acceleration X,Acceleration Y,Acceleration Z,Gyro X,Gyro Y,Gyro Z,Temperature,Speed_Range
60.0,1605.0,0.22,-0.35,10.16,-0.36,-2.5,0.27,19.64,60.0-70.0
60.0,1423.0,0.56,0.01,10.25,-0.08,-0.21,0.91,19.64,60.0-70.0
60.0,1275.0,0.1,-0.04,10.08,-0.37,0.9,0.01,19.63,60.0-70.0
60.0,1326.0,-0.4,-0.33,9.73,-0.43,0.21,-1.47,19.61,60.0-70.0
60.0,1488.0,0.18,-0.17,10.09,0.39,-2.05,-1.3,19.62,60.0-70.0
60.0,1568.0,0.48,0.22,10.17,0.59,-1.25,-0.48,19.64,60.0-70.0
60.0,1278.0,0.07,0.27,9.98,0.1,0.38,-0.92,19.63,60.0-70.0
60.0,1392.0,-0.43,-0.44,9.82,-0.69,-0.17,-0.54,19.63,60.0-70.0
60.0,1174.0,0.16,-0.34,9.79,-0.22,-1.85,0.65,19.63,60.0-70.0
60.0,1504.0,0.39,0.05,10.07,-0.3,-0.32,2.33,19.64,60.0-70.0
60.0,1279.0,-0.26,0.28,9.74,-0.05,0.78,1.05,19.63,60.0-70.0
60.0,1398.0,0.02,0.3,9.78,0.62,-0.85,0.91,19.65,60.0-70.0
60.0,1637.0,0.19,-0.43,9.82,-0.07,-0.23,0.39,19.64,60.0-70.0
60.0,1425.0,-0.15,0.32,9.67,0.51,1.49,-0.76,19.63,60.0-70.0
60.0,1869.0,-0.73,-0.53,9.83,-0.07,0.61,-2.13,19.62,60.0-70.0
60.0,1637.0,0.13,-0.41,9.89,-0.36,-1.47,-0.86,19.65,60.0-70.0
60.0,2000.0,0.56,0.72,10.21,0.33,0.05,0.3,19.63,60.0-70.0
60.0,1961.0,-0.28,-0.09,9.8,-0.19,0.61,-0.56,19.64,60.0-70.0
60.0,1887.0,0.09,-0.3,9.83,-0.36,-2.24,1.34,19.62,60.0-70.0
60.0,1926.0,0.69,0.6,10.26,-0.13,-0.24,2.16,19.62,60.0-70.0
60.0,1959.0,-0.35,0.06,9.69,-0.14,1.62,-0.01,19.62,60.0-70.0
60.0,1557.0,-0.13,0.09,9.9,1.12,-0.84,0.54,19.63,60.0-70.0
60.0,1830.0,0.15,0.67,10.04,0.94,-0.11,0.71,19.67,60.0-70.0
60.0,1734.0,-0.53,-0.21,9.31,0.33,0.4,-1.7,19.63,60.0-70.0
60.0,1073.0,-0.42,0.19,9.54,0.94,-0.72,-1.12,19.63,60.0-70.0
60.0,1818.0,0.23,0.96,9.76,0.82,0.55,0.36,19.63,60.0-70.0
60.0,1829.0,-0.62,-0.07,8.92,-0.05,2.18,-1.29,19.62,60.0-70.0
60.0,944.0,0.59,-0.36,9.77,-0.14,-1.88,0.95,19.61,60.0-70.0
60.0,1441.0,0.21,0.68,9.91,0.1,0.41,1.58,19.62,60.0-70.0
60.0,1745.0,-0.56,-0.35,9.05,-0.43,1.89,-0.76,19.63,60.0-70.0
60.0,1321.0,0.78,-0.55,10.1,0.01,-1.8,0.54,19.64,60.0-70.0
60.0,1441.0,-0.17,0.64,9.79,0.35,1.11,-0.45,19.62,60.0-70.0
60.0,1561.0,-0.74,-0.46,9.16,-0.11,1.17,-1.79,19.61,60.0-70.0
60.0,1954.0,0.84,-0.71,10.32,-0.01,-2.09,-0.07,19.62,60.0-70.0
60.0,1044.0,-0.34,0.3,9.91,-0.17,1.86,-0.86,19.6,60.0-70.0
60.0,1499.0,-0.19,0.4,9.68,0.36,-1.97,0.45,19.62,60.0-70.0
60.0,1465.0,0.66,-0.49,9.99,-0.51,-1.22,1.41,19.62,60.0-70.0
60.0,1290.0,-0.23,-0.22,9.76,-1.09,2.4,-0.53,19.63,60.0-70.0
60.0,481.0,-0.23,0.02,9.96,0.53,-2.27,0.77,19.63,60.0-70.0
60.0,1392.0,0.46,1.2,10.01,0.57,0.24,1.05,19.62,60.0-70.0
60.0,1220.0,-0.59,-0.76,9.2,-0.97,2.32,-1.98,19.63,60.0-70.0
60.0,993.0,0.61,-0.66,9.77,0.41,-2.43,-0.45,19.65,60.0-70.0
60.0,503.0,0.25,0.84,10.13,0.33,0.7,-0.63,19.63,60.0-70.0
60.0,999.0,-0.19,0.17,9.5,0.35,-0.76,-0.14,19.63,60.0-70.0
60.0,1232.0,0.49,-0.95,10.29,-0.36,-2.12,0.71,19.61,60.0-70.0
60.0,1008.0,-0.34,0.09,9.73,-0.62,2.47,-0.66,19.64,60.0-70.0
60.0,458.0,-0.43,0.52,9.9,0.86,-2.03,1.38,19.61,60.0-70.0
60.0,1090.0,0.45,1.55,10.03,0.93,0.76,1.84,19.64,60.0-70.0
60.0,969.0,-0.76,-1.1,9.03,-1.29,2.72,-1.76,19.62,60.0-70.0
60.0,1264.0,0.85,-0.48,9.97,0.19,-3.02,0.13,19.62,60.0-70.0
60.0,827.0,-0.05,1.31,10.11,0.3,1.02,-0.76,19.61,60.0-70.0
60.0,1139.0,0.06,0.89,9.6,1.15,-1.28,0.02,19.62,60.0-70.0
60.0,1285.0,0.71,-1.24,10.03,-0.25,-1.08,-0.42,19.62,60.0-70.0
60.0,1226.0,-0.37,-0.35,9.13,-0.74,2.21,-2.02,19.62,60.0-70.0
60.0,1584.0,0.7,0.49,9.93,1.08,-2.49,1.15,19.63,60.0-70.0
60.0,1072.0,0.53,1.93,10.28,0.65,0.12,1.66,19.64,60.0-70.0
60.0,1237.0,-0.86,-2.42,9.82,-2.34,1.53,-1.38,19.63,60.0-70.0
60.0,1711.0,0.12,-1.37,10.11,-0.62,-2.17,0.53,19.65,60.0-70.0
60.0,1713.0,-0.14,0.42,9.91,-0.31,2.18,-1.7,19.62,60.0-70.0
60.0,1291.0,-0.26,1.25,9.99,1.58,-2.06,0.83,19.64,60.0-70.0
60.0,1408.0,0.44,-0.41,10.04,-0.1,-1.1,0.08,19.64,60.0-70.0
60.0,1475.0,-0.53,-2.95,9.45,-2.29,2.24,-3.21,19.64,60.0-70.0
60.0,2255.0,-0.03,-0.91,10.08,-0.48,-3.08,-0.1,19.62,60.0-70.0
60.0,2141.0,0.12,0.99,10.28,-0.14,1.88,-1.03,19.64,60.0-70.0
60.0,1189.0,-0.79,-0.26,8.65,-0.19,1.91,0.48,19.64,60.0-70.0
60.0,1675.0,0.76,-1.19,10.24,-1.0,-1.6,0.76,19.63,60.0-70.0
60.0,1703.0,-0.63,-3.1,9.21,-2.43,2.94,-2.63,19.63,60.0-70.0
60.0,2272.0,-0.08,-0.7,10.03,-0.6,-3.25,0.27,19.62,60.0-70.0
60.0,2134.0,1.47,2.08,10.56,1.66,0.14,1.56,19.64,60.0-70.0
60.0,1357.0,-0.63,-0.46,8.7,-0.02,1.89,-0.5,19.64,60.0-70.0
60.0,1650.0,0.56,-1.2,10.12,-0.69,-1.79,-0.34,19.65,60.0-70.0
60.0,1883.0,-0.75,-3.3,9.37,-2.68,3.08,-3.24,19.65,60.0-70.0
60.0,2407.0,-0.28,1.73,9.89,1.76,-2.78,2.24,19.63,60.0-70.0
60.0,1938.0,1.58,1.99,10.57,1.23,-0.4,1.96,19.65,60.0-70.0
60.0,1145.0,-0.49,-0.15,8.57,0.13,1.51,0.69,19.64,60.0-70.0
60.0,1495.0,0.52,-0.97,10.29,-0.86,-2.2,0.65,19.65,60.0-70.0
60.0,1968.0,0.67,0.61,10.09,-0.26,2.11,-1.49,19.62,60.0-70.0
60.0,2288.0,0.08,1.04,9.53,1.38,-2.81,1.85,19.64,60.0-70.0
60.0,1489.0,1.15,1.98,10.48,1.25,-0.43,0.77,19.64,60.0-70.0
60.0,681.0,-0.43,0.57,9.2,1.46,1.53,0.3,19.64,60.0-70.0
60.0,1172.0,-0.41,-0.03,9.01,0.62,0.01,-0.1,19.62,60.0-70.0
60.0,1493.0,0.22,0.2,9.54,-0.74,1.54,-1.96,19.6,60.0-70.0
60.0,1424.0,0.7,0.43,10.44,0.19,-2.91,2.02,19.62,60.0-70.0
60.0,1216.0,-0.24,2.02,10.0,1.03,0.24,0.8,19.64,60.0-70.0
60.0,619.0,-0.83,-2.58,9.63,-2.84,1.33,-1.81,19.64,60.0-70.0
60.0,1140.0,0.71,-0.28,9.48,0.99,0.81,0.16,19.61,60.0-70.0
60.0,1363.0,-0.25,-0.75,8.9,-1.2,1.27,-2.17,19.62,60.0-70.0
60.0,1561.0,0.24,0.23,10.87,-0.14,-3.56,1.15,19.62,60.0-70.0
60.0,1151.0,1.17,0.14,10.13,0.13,0.53,0.05,19.62,60.0-70.0
60.0,134.0,-0.76,-1.58,8.75,-1.21,1.45,-1.63,19.62,60.0-70.0
60.0,870.0,0.56,-0.42,9.96,0.28,-0.84,0.1,19.62,60.0-70.0
60.0,1392.0,-0.75,-2.22,9.98,-2.65,1.69,-2.07,19.64,60.0-70.0
60.0,1627.0,0.2,0.88,9.38,1.15,-1.91,2.66,19.61,60.0-70.0
60.0,1418.0,0.95,0.98,10.39,0.21,-0.82,0.69,19.62,60.0-70.0
60.0,0.0,-0.56,-0.16,9.32,0.71,1.53,0.13,19.63,60.0-70.0
60.0,887.0,-0.58,-0.48,9.71,-0.68,-0.46,-0.07,19.61,60.0-70.0
60.0,1031.0,0.41,0.41,9.7,-0.22,0.5,-1.7,19.6,60.0-70.0
60.0,1520.0,0.33,0.41,10.88,0.21,-2.67,1.7,19.62,60.0-70.0
60.0,1408.0,-0.56,1.93,10.08,1.2,0.24,-0.13,19.62,60.0-70.0
60.0,574.0,-0.24,0.97,9.93,1.99,-0.23,1.84,19.6,60.0-70.0
60.0,503.0,0.76,-0.09,9.78,1.03,0.73,0.24,19.61,60.0-70.0
60.0,1388.0,-0.88,-1.68,9.6,-2.48,0.7,-1.82,19.61,60.0-70.0
60.0,1658.0,-0.1,0.27,10.13,-0.26,-1.27,1.21,19.61,60.0-70.0
60.0,1830.0,0.41,0.91,9.39,0.88,1.72,-1.12,19.61,60.0-70.0
60.0,1392.0,-0.68,0.01,9.45,0.53,0.7,0.1,19.63,60.0-70.0
60.0,976.0,-0.12,0.12,9.85,0.31,-0.21,0.34,19.61,60.0-70.0
60.0,1378.0,-0.77,-2.09,9.78,-2.8,1.19,-2.17,19.61,60.0-70.0
60.0,1739.0,0.29,0.07,9.49,0.94,0.63,0.21,19.6,60.0-70.0
60.0,2121.0,-0.15,1.52,10.45,0.86,0.06,-0.5,19.62,60.0-70.0
60.0,2114.0,-0.52,1.17,9.47,1.84,-0.55,1.96,19.6,60.0-70.0
60.0,1524.0,1.35,0.65,10.19,0.16,-1.01,0.91,19.61,60.0-70.0
60.0,1117.0,0.07,-0.33,9.15,0.15,1.24,-0.08,19.61,60.0-70.0
60.0,1461.0,-0.94,-0.1,9.28,-0.31,0.35,0.69,19.63,60.0-70.0
60.0,2303.0,0.52,0.57,9.48,0.51,1.1,-1.81,19.62,60.0-70.0
60.0,2077.0,0.57,-0.19,10.31,-0.31,-1.63,1.35,19.61,60.0-70.0
60.0,2159.0,-0.29,1.17,10.17,0.19,-1.07,-0.57,19.63,60.0-70.0
60.0,1193.0,-0.07,-1.8,9.53,-2.58,0.43,-1.82,19.61,60.0-70.0
60.0,1911.0,0.72,0.45,9.33,1.55,1.2,0.27,19.63,60.0-70.0
60.0,1649.0,-0.16,-1.81,9.93,-1.73,0.24,-1.81,19.62,60.0-70.0
60.0,2378.0,-1.02,-0.34,9.6,-1.12,-0.46,1.09,19.59,60.0-70.0
60.0,2154.0,1.35,0.35,10.1,-0.75,-1.74,0.4,19.6,60.0-70.0
60.0,1616.0,-0.16,0.39,10.24,1.25,0.72,0.53,19.62,60.0-70.0
60.0,1104.0,-0.96,0.94,9.83,1.38,-0.18,1.23,19.61,60.0-70.0
60.0,1931.0,-0.09,-1.5,9.92,-2.72,-0.79,-1.43,19.62,60.0-70.0
60.0,2023.0,0.3,-0.83,10.71,-1.52,-1.98,0.8,19.61,60.0-70.0
60.0,1563.0,-0.56,0.78,10.35,0.25,1.01,-1.55,19.61,60.0-70.0
60.0,1324.0,-0.46,0.55,9.23,1.43,-0.17,1.14,19.61,60.0-70.0
60.0,919.0,1.23,0.19,9.89,-0.77,-0.89,0.13,19.62,60.0-70.0
60.0,965.0,-0.14,-2.03,10.68,-2.74,-0.7,-1.24,19.61,60.0-70.0
60.0,1533.0,-0.69,0.47,9.25,0.45,2.24,0.92,19.6,60.0-70.0
60.0,1585.0,0.25,0.19,9.25,0.67,0.11,-1.47,19.62,60.0-70.0
60.0,1915.0,0.36,-0.77,10.97,-1.33,-2.12,1.35,19.62,60.0-70.0
60.0,1635.0,-0.16,0.32,9.75,0.3,0.4,0.53,19.6,60.0-70.0
60.0,459.0,0.52,-0.8,9.28,-1.3,-0.47,-1.11,19.61,60.0-70.0
60.0,965.0,0.51,0.84,9.31,2.16,1.22,0.59,19.61,60.0-70.0
60.0,1283.0,-0.74,-2.38,10.33,-3.07,-0.18,-1.81,19.6,60.0-70.0
60.0,1535.0,0.52,-0.2,9.76,-0.02,-1.63,1.47,19.61,60.0-70.0
60.0,1443.0,0.27,0.76,10.18,-0.54,-1.54,-0.07,19.6,60.0-70.0
60.0,722.0,-0.82,1.26,10.54,2.07,-0.18,1.58,19.6,60.0-70.0
60.0,495.0,-0.07,0.36,9.56,0.33,0.69,0.98,19.6,60.0-70.0
60.0,947.0,0.06,-1.49,9.38,-1.23,-1.33,-1.58,19.62,60.0-70.0
60.0,1130.0,-0.24,-0.41,10.61,-1.65,-0.78,0.98,19.57,60.0-70.0
60.0,1396.0,0.39,1.15,9.56,1.72,1.3,-1.41,19.59,60.0-70.0
60.0,1328.0,0.58,0.26,9.48,0.38,-1.34,1.93,19.61,60.0-70.0
60.0,529.0,-1.14,0.41,9.15,0.65,0.44,0.48,19.6,60.0-70.0
60.0,683.0,0.52,-2.66,10.59,-3.65,-0.61,-1.99,19.61,60.0-70.0
60.0,1141.0,-0.26,0.31,9.08,1.47,3.65,0.16,19.6,60.0-70.0
60.0,1489.0,-0.25,-1.57,9.6,-1.67,-1.79,-1.63,19.61,60.0-70.0
60.0,1486.0,0.53,1.05,9.61,1.8,-1.27,2.39,19.59,60.0-70.0
60.0,1658.0,1.39,0.17,10.18,-0.63,-1.24,0.4,19.61,60.0-70.0
60.0,160.0,-0.22,0.39,10.47,1.41,-0.26,0.36,19.6,60.0-70.0
60.0,707.0,-1.58,0.7,8.88,1.22,1.62,0.72,19.6,60.0-70.0
60.0,1449.0,0.38,-0.1,8.68,0.51,-0.66,-1.82,19.61,60.0-70.0
60.0,1645.0,0.47,-0.35,11.23,-1.27,-1.71,1.32,19.61,60.0-70.0
60.0,1635.0,-0.62,1.63,9.86,1.54,0.55,-0.85,19.61,60.0-70.0
60.0,1119.0,0.24,1.4,9.55,2.16,-1.27,2.3,19.61,60.0-70.0
60.0,507.0,-0.17,0.15,8.84,0.88,1.88,0.39,19.59,60.0-70.0
60.0,960.0,-0.23,-3.07,10.58,-3.9,-0.63,-2.19,19.58,60.0-70.0
60.0,1806.0,-0.87,-0.21,9.14,-0.19,3.92,-0.25,19.6,60.0-70.0
60.0,2091.0,0.35,-0.38,9.04,-0.07,-0.57,-1.99,19.61,60.0-70.0
60.0,2158.0,-0.24,1.78,10.45,2.85,-1.1,1.99,19.59,60.0-70.0
60.0,1607.0,0.52,0.14,9.67,0.09,0.35,0.56,19.59,60.0-70.0
60.0,879.0,0.61,-1.07,9.56,-0.71,-1.16,-0.88,19.6,60.0-70.0
60.0,1535.0,-0.77,0.35,9.06,1.37,2.01,0.51,19.61,60.0-70.0
60.0,1917.0,0.27,0.78,9.09,1.38,1.02,-1.59,19.59,60.0-70.0
60.0,2242.0,0.67,-0.18,10.77,-0.77,-1.6,1.73,19.62,60.0-70.0
60.0,2178.0,-0.89,1.2,10.23,0.24,-0.75,-0.59,19.59,60.0-70.0
60.0,1232.0,-0.13,1.85,10.54,2.82,-1.59,2.05,19.59,60.0-70.0
60.0,1306.0,0.34,0.43,9.0,1.8,3.04,0.21,19.6,60.0-70.0
60.0,1533.0,-0.47,-2.87,10.01,-2.89,-1.02,-2.08,19.61,60.0-70.0
60.0,1970.0,-1.12,-0.73,8.96,-1.7,3.52,-0.39,19.61,60.0-70.0
60.0,2284.0,0.85,-0.13,8.85,0.67,0.67,-2.22,19.6,60.0-70.0
60.0,2390.0,-0.48,2.3,11.17,3.53,-1.45,2.16,19.59,60.0-70.0
60.0,1194.0,-0.89,1.03,9.25,1.09,1.02,1.53,19.57,60.0-70.0
60.0,1201.0,1.2,-1.31,9.19,-1.65,-2.32,-0.91,19.58,60.0-70.0
60.0,1235.0,0.03,0.29,8.91,1.76,3.14,0.4,19.62,60.0-70.0
60.0,1808.0,0.18,0.66,9.56,0.83,1.69,-1.73,19.6,60.0-70.0
60.0,2413.0,1.0,0.19,10.49,-0.25,-2.43,2.14,19.59,60.0-70.0
60.0,2209.0,-0.31,1.41,10.41,-0.2,-2.82,0.21,19.61,60.0-70.0
60.0,925.0,0.03,2.69,11.35,3.57,-2.4,2.71,19.57,60.0-70.0
60.0,538.0,-0.01,-0.15,8.43,1.34,5.61,-0.63,19.59,60.0-70.0
60.0,1091.0,-0.53,-2.65,9.42,-2.34,-0.85,-2.43,19.6,60.0-70.0
60.0,1759.0,-1.1,-1.48,9.86,-2.9,2.47,-0.36,19.59,60.0-70.0
60.0,1957.0,0.26,0.64,8.7,1.2,1.82,-1.85,19.57,60.0-70.0
60.0,1221.0,0.01,1.5,11.12,2.27,-2.82,1.59,19.58,60.0-70.0
60.0,946.0,-1.42,1.13,9.56,1.78,1.6,1.55,19.61,60.0-70.0
60.0,1017.0,0.51,-1.81,9.72,-2.45,-1.85,-1.41,19.59,60.0-70.0
60.0,1001.0,0.39,0.58,8.74,1.64,3.17,0.02,19.61,60.0-70.0
60.0,1309.0,-0.41,1.08,9.65,0.86,1.45,-1.73,19.59,60.0-70.0
60.0,1645.0,0.88,0.68,9.62,1.2,-1.01,1.7,19.61,60.0-70.0
60.0,1563.0,0.77,0.58,9.8,-0.88,-1.19,-0.11,19.61,60.0-70.0
60.0,385.0,-0.39,1.63,11.08,2.53,-1.8,1.3,19.62,60.0-70.0
60.0,363.0,-0.67,-0.16,9.09,0.44,4.75,-0.1,19.59,60.0-70.0
60.0,1235.0,0.38,-1.5,8.73,-0.48,-1.01,-1.9,19.57,60.0-70.0
60.0,1509.0,-0.14,-1.42,10.65,-3.12,-0.49,0.47,19.62,60.0-70.0
60.0,1710.0,-0.05,0.61,9.6,0.88,2.12,-1.75,19.61,60.0-70.0
60.0,761.0,0.52,0.68,10.05,1.54,-1.66,0.5,19.59,60.0-70.0
60.0,145.0,-1.39,1.49,8.9,2.25,0.99,1.5,19.62,60.0-70.0
60.0,673.0,0.2,-2.43,10.57,-3.16,-2.2,-1.47,19.59,60.0-70.0
60.0,1217.0,-0.45,-0.14,9.02,1.0,5.05,-0.13,19.61,60.0-70.0
60.0,1491.0,-1.18,1.15,10.06,0.1,-0.06,-1.08,19.61,60.0-70.0
60.0,1740.0,-0.03,2.08,10.0,2.54,-1.3,2.25,19.61,60.0-70.0
60.0,870.0,1.36,0.94,10.34,0.18,-0.99,1.05,19.6,60.0-70.0
60.0,1179.0,0.39,0.73,10.19,1.47,-1.54,0.56,19.59,60.0-70.0
60.0,956.0,-1.39,-0.87,8.58,-1.32,3.62,-0.42,19.61,60.0-70.0
60.0,1722.0,1.03,-0.05,8.75,0.47,0.38,-2.25,19.61,60.0-70.0
60.0,1943.0,0.88,-0.81,11.24,-1.85,-1.4,1.18,19.59,60.0-70.0
60.0,1879.0,-1.33,1.88,10.04,0.91,-0.49,-0.31,19.6,60.0-70.0
60.0,587.0,0.7,-1.76,9.64,-2.03,-2.56,-1.38,19.61,60.0-70.0
60.0,707.0,0.14,-0.12,9.12,2.12,3.04,0.22,19.61,60.0-70.0
60.0,1790.0,-0.76,-3.07,9.77,-3.06,-1.04,-2.19,19.6,60.0-70.0
60.0,2110.0,-0.77,-0.42,9.0,-1.42,3.17,-0.34,19.61,60.0-70.0
60.0,2115.0,0.38,1.59,10.34,0.42,-1.62,0.53,19.59,60.0-70.0
60.0,1404.0,-0.94,1.93,10.96,3.05,-1.05,1.7,19.59,60.0-70.0
60.0,845.0,-0.74,0.35,9.41,0.73,0.9,0.65,19.6,60.0-70.0
60.0,1488.0,0.63,-1.63,9.09,-1.62,-1.4,-1.81,19.59,60.0-70.0
60.0,1861.0,-0.22,-0.95,10.52,-2.86,0.4,0.37,19.6,60.0-70.0
60.0,2260.0,0.44,1.25,9.59,1.57,1.51,-1.34,19.6,60.0-70.0
60.0,2675.0,0.94,0.6,10.07,0.65,-1.8,2.53,19.6,60.0-70.0
60.0,1795.0,0.22,1.64,10.23,0.42,-3.19,0.77,19.61,60.0-70.0
60.0,858.0,-0.05,-3.22,10.16,-3.87,-0.73,-2.2,19.59,60.0-70.0
60.0,1648.0,-0.47,-0.85,8.65,0.48,5.8,-0.92,19.58,60.0-70.0
60.0,2220.0,0.05,-2.54,9.07,-2.14,-0.53,-2.83,19.58,60.0-70.0
60.0,2789.0,-0.35,-1.11,10.43,-3.19,0.29,-0.21,19.61,60.0-70.0
60.0,2458.0,1.38,1.55,10.26,1.08,-1.51,1.29,19.58,60.0-70.0
60.0,1033.0,-0.42,0.89,9.79,1.93,-1.16,0.51,19.59,60.0-70.0
60.0,757.0,-1.73,0.07,8.4,0.7,2.06,0.43,19.6,60.0-70.0
60.0,1745.0,0.33,-3.95,9.88,-4.28,0.4,-3.27,19.6,60.0-70.0
60.0,2739.0,0.93,-0.28,12.11,-2.13,-2.44,1.96,19.59,60.0-70.0
60.0,2799.0,-0.89,2.51,10.47,1.7,-2.05,0.48,19.57,60.0-70.0
60.0,1763.0,1.17,2.72,10.41,3.32,-3.49,4.07,19.59,60.0-70.0
60.0,624.0,1.18,1.47,10.22,1.12,-1.97,1.29,19.59,60.0-70.0
60.0,983.0,-1.32,-3.98,10.0,-4.32,1.24,-3.23,19.59,60.0-70.0
60.0,1935.0,-1.27,-1.29,8.66,-1.21,5.97,-1.4,19.59,60.0-70.0
60.0,2523.0,0.9,-1.27,9.26,-1.07,-0.28,-2.3,19.59,60.0-70.0
60.0,2633.0,0.55,-0.81,11.99,-3.06,-2.43,1.14,19.59,60.0-70.0
60.0,1899.0,0.35,1.24,9.51,1.58,0.44,1.49,19.59,60.0-70.0
60.0,144.0,0.31,-0.32,8.28,0.5,-0.05,-0.83,19.59,60.0-70.0
60.0,615.0,-1.01,0.08,7.67,0.99,4.18,-0.21,19.59,60.0-70.0
60.0,1965.0,-0.62,-4.24,10.27,-4.63,1.75,-3.61,19.61,60.0-70.0
60.0,2382.0,1.32,0.4,11.98,-0.83,-4.27,2.66,19.59,60.0-70.0
60.0,2368.0,-0.48,2.39,10.68,1.14,-5.08,0.97,19.59,60.0-70.0
60.0,1008.0,0.31,3.17,10.82,4.07,-3.69,3.9,19.58,60.0-70.0
60.0,0.0,0.7,1.48,9.69,2.15,0.11,1.64,19.58,60.0-70.0
60.0,707.0,-0.85,-3.53,9.77,-3.3,1.74,-3.27,19.6,60.0-70.0
60.0,1613.0,-1.34,-1.34,9.4,-2.61,2.93,-0.66,19.59,60.0-70.0
60.0,2057.0,1.28,0.27,10.01,0.01,-0.26,-1.63,19.6,60.0-70.0
60.0,2032.0,1.23,-0.3,11.91,-1.5,-3.48,2.13,19.6,60.0-70.0
60.0,336.0,-1.44,1.41,8.74,2.41,1.77,1.43,19.59,60.0-70.0
60.0,39.0,0.04,-1.73,8.43,-2.1,-0.35,-1.96,19.6,60.0-70.0
60.0,687.0,0.34,-0.15,8.28,1.25,4.99,-0.6,19.59,60.0-70.0
60.0,1497.0,-0.62,-3.47,9.81,-2.87,1.74,-3.06,19.58,60.0-70.0
60.0,2059.0,0.9,1.38,10.25,1.4,-3.14,2.95,19.6,60.0-70.0
60.0,1521.0,1.14,1.89,10.55,0.67,-4.67,1.4,19.61,60.0-70.0
60.0,30.0,-0.22,2.7,11.32,4.04,-2.29,2.56,19.6,60.0-70.0
60.0,0.0,-1.41,1.63,8.64,2.24,1.53,1.73,19.57,60.0-70.0
60.0,843.0,0.03,-2.04,8.57,-1.67,0.56,-2.86,19.58,60.0-70.0
60.0,1869.0,0.31,-1.32,11.42,-3.47,-0.96,0.28,19.59,60.0-70.0
60.0,2258.0,0.38,1.48,10.87,0.99,-0.55,-0.92,19.59,60.0-70.0
60.0,863.0,-0.03,0.19,9.09,1.37,-0.63,-0.08,19.57,60.0-70.0
60.0,0.0,-1.57,0.27,7.79,1.28,3.31,0.18,19.58,60.0-70.0
60.0,336.0,-0.22,-4.08,9.82,-4.45,1.57,-3.53,19.58,60.0-70.0
60.0,1479.0,-0.95,-1.43,8.41,-0.51,7.49,-1.73,19.59,60.0-70.0
60.0,2331.0,-0.72,2.52,10.8,1.38,-3.82,0.83,19.58,60.0-70.0
60.0,1879.0,0.48,3.03,10.7,3.82,-3.68,3.96,19.55,60.0-70.0
60.0,1007.0,1.01,1.13,9.68,1.38,-0.35,1.29,19.59,60.0-70.0
60.0,115.0,-0.42,0.14,8.89,1.34,-0.55,-0.1,19.57,60.0-70.0
60.0,657.0,-1.04,-1.01,9.36,-2.13,3.83,-0.69,19.58,60.0-70.0
60.0,2032.0,1.27,0.15,9.82,0.21,-0.52,-1.53,19.58,60.0-70.0
60.0,2928.0,0.83,-0.09,12.25,-1.71,-4.04,2.3,19.6,60.0-70.0
60.0,1910.0,-0.7,2.15,10.86,1.12,-2.85,0.13,19.6,60.0-70.0
60.0,560.0,0.54,-1.74,8.21,-1.55,0.14,-2.3,19.59,60.0-70.0
60.0,706.0,-0.15,-0.07,8.4,1.35,4.56,-0.62,19.57,60.0-70.0
60.0,1326.0,-0.3,-0.01,9.79,-0.23,1.34,-0.69,18.27,60.0-70.0
60.0,1648.0,-0.55,-0.34,9.75,-0.43,0.2,-0.63,18.27,60.0-70.0
60.0,1632.0,0.38,-0.49,10.18,-0.37,-2.12,-0.22,18.28,60.0-70.0
60.0,1813.0,0.34,-0.15,10.05,-0.08,0.44,-0.47,18.26,60.0-70.0
60.0,1282.0,-0.23,0.12,9.95,0.06,1.19,-1.91,18.27,60.0-70.0
60.0,1843.0,-0.59,-0.48,9.85,-0.37,0.09,-1.73,18.26,60.0-70.0
60.0,1319.0,0.07,-0.48,10.15,-0.36,-1.94,-0.01,18.28,60.0-70.0
60.0,1482.0,0.21,0.29,9.74,0.12,0.98,1.21,18.24,60.0-70.0
60.0,1694.0,-0.44,-0.02,9.77,-0.3,0.9,0.31,18.28,60.0-70.0
60.0,1529.0,-0.29,0.14,9.37,0.24,-0.18,1.05,18.26,60.0-70.0
60.0,1838.0,0.34,-0.05,9.82,0.24,-0.57,1.66,18.28,60.0-70.0
60.0,1311.0,-0.01,-0.21,9.77,-0.11,0.79,-0.42,18.26,60.0-70.0
60.0,1453.0,-0.32,-0.02,9.2,0.38,-0.32,-1.17,18.27,60.0-70.0
60.0,1584.0,0.31,-0.48,10.43,-0.3,-1.72,-0.83,18.27,60.0-70.0
60.0,1527.0,-0.02,0.46,9.77,0.51,2.03,-0.69,18.26,60.0-70.0
60.0,1946.0,-1.0,-0.62,9.6,-0.6,0.35,-1.27,18.24,60.0-70.0
60.0,1605.0,0.53,-0.59,10.05,-0.8,-1.72,0.36,18.27,60.0-70.0
60.0,1879.0,0.94,0.79,10.74,0.16,0.11,1.73,18.27,60.0-70.0
60.0,1770.0,-0.73,-0.27,9.82,-0.1,0.12,0.25,18.27,60.0-70.0
60.0,1479.0,0.21,-0.82,10.06,-0.94,-2.66,1.18,18.24,60.0-70.0
60.0,1615.0,0.01,0.51,10.13,0.36,0.41,0.72,18.24,60.0-70.0
60.0,1671.0,-0.37,-0.13,8.97,0.48,1.31,-1.35,18.25,60.0-70.0
60.0,1404.0,1.09,-0.56,9.78,0.18,-2.01,-0.27,18.27,60.0-70.0
60.0,1375.0,0.19,0.89,10.09,0.96,0.56,-0.13,18.27,60.0-70.0
60.0,1569.0,-0.79,-0.38,10.11,-0.45,-1.33,-0.5,18.27,60.0-70.0
60.0,1535.0,0.84,-0.56,9.6,0.06,-1.86,0.18,18.28,60.0-70.0
60.0,1023.0,0.26,0.85,10.13,0.3,0.12,0.63,18.26,60.0-70.0
60.0,1477.0,-0.48,0.05,10.07,-0.25,-0.99,0.57,18.27,60.0-70.0
60.0,1821.0,0.18,-0.19,10.08,-0.1,-0.09,1.47,18.23,60.0-70.0
60.0,1120.0,-0.33,0.41,9.8,-0.05,0.95,-0.28,18.23,60.0-70.0
60.0,1535.0,0.08,0.36,9.64,0.71,-1.3,-0.18,18.27,60.0-70.0
60.0,1658.0,0.7,0.48,10.38,0.83,-0.52,0.98,18.26,60.0-70.0
60.0,1607.0,-1.17,-0.9,9.13,-0.86,2.76,-2.13,18.26,60.0-70.0
60.0,991.0,-0.18,0.56,9.84,1.35,-1.98,-0.1,18.24,60.0-70.0
60.0,1750.0,0.37,2.03,10.18,1.18,-0.26,1.98,18.28,60.0-70.0
60.0,1535.0,-0.97,-0.61,9.61,-0.62,1.31,-0.34,18.26,60.0-70.0
60.0,1559.0,0.24,-1.58,10.11,-1.23,-1.43,0.89,18.26,60.0-70.0
60.0,1148.0,0.56,1.97,10.53,1.31,-0.03,1.41,18.27,60.0-70.0
60.0,1806.0,-0.61,0.87,9.73,0.36,-0.44,0.69,18.26,60.0-70.0
60.0,1301.0,0.0,-0.38,10.06,0.07,-0.06,0.91,18.26,60.0-70.0
60.0,1648.0,-0.71,-2.08,8.79,-1.62,3.1,-3.21,18.26,60.0-70.0
60.0,1392.0,0.03,1.59,10.08,2.07,-2.47,0.22,18.27,60.0-70.0
60.0,1905.0,0.76,2.85,10.1,2.1,-0.23,2.22,18.27,60.0-70.0
60.0,1181.0,-1.34,-1.14,9.68,-1.0,1.17,-0.72,18.25,60.0-70.0
60.0,1360.0,0.1,-2.53,9.72,-1.39,0.06,0.08,18.27,60.0-70.0
60.0,1895.0,0.2,2.63,10.82,1.46,-0.44,1.75,18.25,60.0-70.0
60.0,1153.0,0.58,2.4,9.7,2.12,-1.68,2.69,18.27,60.0-70.0
60.0,823.0,0.16,1.13,9.64,0.93,-0.23,2.46,18.26,60.0-70.0
60.0,1259.0,-0.97,-3.87,9.25,-2.77,2.9,-3.17,18.27,60.0-70.0
60.0,1803.0,-0.13,1.52,10.6,1.63,-3.22,0.82,18.25,60.0-70.0
60.0,1431.0,0.91,3.9,11.43,2.74,-2.4,2.33,18.27,60.0-70.0
60.0,1312.0,-0.36,1.69,8.97,2.25,-0.09,1.01,18.25,60.0-70.0
60.0,848.0,-0.09,-0.94,9.51,-0.42,-0.21,0.28,18.26,60.0-70.0
60.0,1907.0,0.51,0.33,10.63,-0.98,2.26,-1.95,18.27,60.0-70.0
60.0,2256.0,-0.48,2.68,11.26,1.9,-5.97,3.41,18.27,60.0-70.0
60.0,791.0,1.45,3.83,11.54,3.12,-2.69,4.19,18.27,60.0-70.0
60.0,464.0,-1.01,0.77,8.07,1.58,0.2,1.32,18.26,60.0-70.0
60.0,1415.0,-0.01,-1.89,9.46,-1.91,-0.31,-0.92,18.26,60.0-70.0
60.0,2321.0,0.75,0.76,11.47,-0.97,1.82,-1.81,18.27,60.0-70.0
60.0,1677.0,-0.22,2.71,11.32,2.18,-7.57,3.18,18.27,60.0-70.0
60.0,434.0,1.65,3.62,11.55,3.41,-3.39,2.77,18.26,60.0-70.0
60.0,877.0,-1.3,-4.63,8.37,-3.07,8.07,-5.06,18.26,60.0-70.0
60.0,1611.0,-0.51,-1.37,9.03,-1.79,0.93,-0.94,18.28,60.0-70.0
60.0,2522.0,1.07,0.26,11.39,-1.81,1.66,-1.64,18.27,60.0-70.0
60.0,1616.0,0.41,1.63,11.03,1.11,-7.03,3.69,18.28,60.0-70.0
60.0,162.0,-0.31,-0.41,8.43,-0.3,-0.03,0.47,18.26,60.0-70.0
60.0,1050.0,-1.03,-4.37,9.15,-3.15,6.5,-3.73,18.28,60.0-70.0
60.0,1893.0,-0.88,-1.42,8.18,-0.55,4.06,-1.08,18.3,60.0-70.0
60.0,2405.0,0.5,-0.72,10.03,-2.03,2.38,-3.15,18.28,60.0-70.0
60.0,1687.0,0.03,2.27,10.35,4.33,-2.58,2.1,18.29,60.0-70.0
60.0,0.0,-0.95,1.31,8.45,1.55,0.32,0.8,18.29,60.0-70.0
60.0,784.0,-0.99,-2.65,8.55,-2.45,2.91,-2.69,18.27,60.0-70.0
60.0,1899.0,-0.2,-1.55,8.66,0.35,5.95,-0.69,18.28,60.0-70.0
60.0,2478.0,-0.41,2.16,11.11,0.44,-2.35,0.97,18.28,60.0-70.0
60.0,1791.0,0.16,2.68,11.31,3.26,-6.47,3.94,18.28,60.0-70.0
60.0,187.0,0.7,2.19,10.39,2.59,-1.1,1.98,18.29,60.0-70.0
60.0,960.0,-1.03,-0.3,7.5,0.79,0.75,-0.77,18.28,60.0-70.0
60.0,1605.0,0.25,-1.38,10.42,-2.19,-0.85,-0.43,18.27,60.0-70.0
60.0,2590.0,0.81,0.43,11.11,-0.45,1.36,-1.82,18.27,60.0-70.0
60.0,2313.0,0.58,1.39,10.8,1.23,-6.59,2.95,18.28,60.0-70.0
60.0,372.0,1.05,2.83,11.58,1.84,-4.78,1.91,18.27,60.0-70.0
60.0,656.0,-1.19,-3.8,9.14,-3.47,5.61,-3.47,18.28,60.0-70.0
60.0,1106.0,-0.93,-1.43,8.34,-0.55,5.34,-0.66,18.27,60.0-70.0
60.0,2346.0,0.2,-1.33,9.31,-2.4,2.49,-2.51,18.26,60.0-70.0
60.0,2156.0,1.32,-0.51,12.34,-1.67,-4.33,1.63,18.27,60.0-70.0
60.0,963.0,-0.31,1.34,9.18,1.83,0.47,1.2,18.27,60.0-70.0
60.0,86.0,-0.78,-1.46,7.49,-1.09,1.97,-2.42,18.26,60.0-70.0
60.0,1062.0,0.52,-0.87,8.95,0.67,4.35,-1.12,18.28,60.0-70.0
60.0,2181.0,-1.27,-3.38,8.92,-3.18,4.67,-3.9,18.26,60.0-70.0
60.0,2346.0,0.44,1.55,10.47,1.73,-6.26,3.21,18.25,60.0-70.0
60.0,1438.0,1.16,2.03,11.03,1.4,-3.36,1.56,18.27,60.0-70.0
60.0,97.0,-0.64,1.25,9.58,2.94,-0.76,1.47,18.26,60.0-70.0
60.0,715.0,-1.08,0.81,8.45,1.15,1.08,1.08,18.26,60.0-70.0
60.0,1771.0,0.34,-0.91,9.48,-1.78,1.42,-2.17,18.27,60.0-70.0
60.0,2559.0,1.2,-0.58,12.13,-1.42,-4.07,1.67,18.27,60.0-70.0
60.0,1873.0,-0.45,1.97,11.02,0.85,-1.65,-0.07,18.27,60.0-70.0
60.0,435.0,0.07,2.24,10.61,2.94,-5.46,2.86,18.29,60.0-70.0
60.0,272.0,0.38,-0.5,8.81,0.79,3.8,-0.77,18.28,60.0-70.0
60.0,1329.0,-1.17,-3.75,9.41,-3.62,4.24,-3.76,18.27,60.0-70.0
60.0,2256.0,-0.74,-1.05,9.22,-1.56,2.06,-0.24,18.3,60.0-70.0
60.0,2381.0,1.16,-0.11,10.26,-0.88,0.59,-1.5,18.28,60.0-70.0
60.0,1570.0,-0.45,1.91,10.17,3.96,-1.31,2.2,18.27,60.0-70.0
60.0,0.0,-1.4,1.12,8.24,1.69,1.86,1.2,18.27,60.0-70.0
60.0,1019.0,-0.59,-2.31,8.17,-2.54,2.56,-2.57,18.26,60.0-70.0
60.0,1938.0,0.19,-1.07,8.91,0.77,6.39,-0.92,18.27,60.0-70.0
60.0,2624.0,-0.16,1.76,11.34,0.76,-2.0,-0.36,18.28,60.0-70.0
60.0,2176.0,0.51,2.23,10.56,2.48,-6.7,3.4,18.26,60.0-70.0
60.0,245.0,1.34,2.2,10.68,2.22,-2.88,1.32,18.27,60.0-70.0
60.0,153.0,-0.9,1.35,8.58,3.24,0.59,0.68,18.26,60.0-70.0
60.0,1472.0,-1.15,-1.27,8.95,-1.23,4.23,-0.59,18.25,60.0-70.0
60.0,2699.0,1.05,-0.72,10.3,-1.62,-0.26,-1.87,18.28,60.0-70.0
60.0,2458.0,1.34,-0.42,12.94,-1.68,-5.88,2.43,18.26,60.0-70.0
60.0,1671.0,-0.51,2.24,11.28,1.23,-4.88,0.88,18.27,60.0-70.0
60.0,0.0,-0.73,-1.34,6.95,-1.07,3.4,-2.33,18.27,60.0-70.0
60.0,727.0,0.52,-0.76,8.67,0.62,6.32,-0.91,18.26,60.0-70.0
60.0,1984.0,-1.37,-3.75,9.47,-3.79,4.88,-3.88,18.24,60.0-70.0
60.0,2623.0,-1.03,-0.97,9.65,-1.73,2.07,-0.45,18.26,60.0-70.0
60.0,1991.0,1.03,2.17,10.84,1.49,-5.08,1.2,18.24,60.0-70.0
60.0,276.0,-0.52,2.11,10.1,4.05,-1.48,1.88,18.27,60.0-70.0
60.0,0.0,-1.3,1.35,8.15,1.9,2.29,1.14,18.28,60.0-70.0
60.0,1424.0,-0.51,-1.88,7.82,-2.17,2.53,-2.33,18.27,60.0-70.0
60.0,2167.0,1.09,-1.02,12.12,-2.54,-3.72,1.27,18.28,60.0-70.0
60.0,1966.0,0.04,1.32,11.38,0.57,-1.69,-0.48,18.27,60.0-70.0
60.0,1447.0,0.52,1.57,10.47,1.98,-6.24,3.18,18.28,60.0-70.0
60.0,451.0,1.28,1.63,10.61,1.26,-3.39,0.98,18.26,60.0-70.0
60.0,451.0,-0.82,-3.48,9.78,-3.41,3.39,-3.3,18.25,60.0-70.0
60.0,1642.0,-1.1,-0.66,8.78,-0.11,4.99,-0.37,18.25,60.0-70.0
60.0,2430.0,0.44,-0.77,9.46,-1.1,0.85,-2.1,18.24,60.0-70.0
60.0,2227.0,1.09,-0.75,12.22,-1.96,-3.46,1.84,18.27,60.0-70.0
60.0,1154.0,-0.26,1.0,9.08,1.38,1.13,1.23,18.26,60.0-70.0
60.0,128.0,-0.3,-1.11,8.0,-0.77,0.61,-1.41,18.26,60.0-70.0
60.0,750.0,0.16,-0.35,8.39,0.93,4.42,-0.4,18.25,60.0-70.0
60.0,1932.0,-1.03,-3.71,9.65,-3.97,2.99,-3.58,18.25,60.0-70.0
60.0,2239.0,0.85,1.07,11.08,1.03,-5.39,2.92,18.26,60.0-70.0
60.0,1535.0,0.31,1.95,10.66,1.14,-3.97,0.68,18.27,60.0-70.0
60.0,173.0,-0.37,1.67,10.53,3.47,-2.53,1.96,18.28,60.0-70.0
60.0,405.0,-0.72,0.68,8.83,1.29,1.54,0.82,18.26,60.0-70.0
60.0,1310.0,-0.18,-2.13,9.64,-2.37,0.95,-2.4,18.26,60.0-70.0
60.0,2234.0,-0.06,-0.81,11.06,-2.14,-0.93,1.29,18.27,60.0-70.0
60.0,2173.0,0.32,1.12,10.39,0.65,-0.28,-0.76,18.25,60.0-70.0
60.0,1374.0,1.14,0.36,11.1,0.48,-4.49,2.63,18.25,60.0-70.0
60.0,60.0,-1.36,1.15,8.17,1.96,3.19,0.74,18.25,60.0-70.0
60.0,687.0,-0.41,-2.45,9.18,-3.26,0.72,-2.69,18.27,60.0-70.0
60.0,1382.0,-0.16,-0.55,9.0,0.68,6.12,-0.71,18.24,60.0-70.0
60.0,1968.0,-0.61,-2.22,8.84,-1.71,1.78,-2.85,18.24,60.0-70.0
60.0,2417.0,0.32,1.81,10.62,2.33,-5.02,2.92,18.24,60.0-70.0
60.0,1250.0,1.04,1.55,10.39,1.08,-1.51,1.4,18.26,60.0-70.0
60.0,0.0,-0.0,1.03,9.43,2.36,-1.33,0.86,18.26,60.0-70.0
60.0,901.0,-1.48,1.11,8.0,1.73,2.65,1.11,18.24,60.0-70.0
60.0,1473.0,0.48,-0.45,9.27,-0.4,1.08,-2.22,18.26,60.0-70.0
60.0,2315.0,1.49,-0.63,12.34,-1.73,-4.23,1.76,18.27,60.0-70.0
60.0,1945.0,-0.73,1.78,11.05,0.7,-2.79,-0.07,18.25,60.0-70.0
60.0,0.0,0.55,2.5,10.71,3.34,-5.8,3.47,18.26,60.0-70.0
60.0,102.0,0.07,-0.35,8.25,0.77,5.86,-0.85,18.24,60.0-70.0
60.0,1360.0,-1.13,-3.84,9.85,-3.74,3.23,-3.52,18.27,60.0-70.0
60.0,2119.0,-1.38,-1.15,9.19,-1.7,4.67,-0.51,18.25,60.0-70.0
60.0,2438.0,0.94,-0.61,10.0,-1.13,-0.53,-1.99,18.24,60.0-70.0
60.0,1279.0,-0.18,2.52,10.97,4.43,-3.2,2.8,18.26,60.0-70.0
60.0,0.0,-1.09,1.6,8.17,2.59,3.05,1.2,18.27,60.0-70.0
60.0,531.0,-0.32,-0.89,7.19,-0.55,1.69,-1.84,18.26,60.0-70.0
60.0,1062.0,0.22,-0.14,8.01,1.11,6.61,-0.68,18.24,60.0-70.0
60.0,2512.0,0.91,0.57,11.26,0.16,-1.36,-1.37,18.27,60.0-70.0
60.0,2255.0,0.98,0.73,11.33,0.57,-7.0,2.98,18.27,60.0-70.0
60.0,1255.0,0.56,2.0,10.68,0.97,-5.69,1.03,18.27,60.0-70.0
60.0,0.0,-0.19,2.79,11.07,4.74,-3.65,2.72,18.25,60.0-70.0
60.0,411.0,-0.85,-1.26,8.69,0.03,8.85,-1.06,18.26,60.0-70.0
60.0,1604.0,-0.63,-2.87,8.93,-2.77,1.83,-2.91,18.26,60.0-70.0
60.0,2594.0,0.53,-1.51,11.82,-3.62,-1.62,0.54,18.25,60.0-70.0
60.0,1869.0,0.69,0.64,11.1,0.09,-1.1,-1.17,18.25,60.0-70.0
60.0,80.0,-0.62,1.22,8.34,3.23,-0.21,0.36,18.24,60.0-70.0
60.0,0.0,-1.61,1.0,7.08,1.55,4.99,0.02,18.25,60.0-70.0
60.0,995.0,0.08,-3.24,9.1,-3.51,2.99,-3.43,18.24,60.0-70.0
60.0,2245.0,-0.87,-1.11,8.76,0.35,8.77,-1.18,18.27,60.0-70.0
60.0,2201.0,-1.02,1.86,11.08,0.76,-4.35,0.14,18.26,60.0-70.0
60.0,1635.0,0.95,2.51,10.88,3.26,-6.94,3.87,18.23,60.0-70.0
60.0,0.0,0.88,1.66,9.97,1.96,-0.14,1.41,18.26,60.0-70.0
60.0,240.0,-0.74,1.25,8.44,3.05,-0.35,0.66,18.25,60.0-70.0
60.0,1161.0,-1.2,-1.11,9.27,-1.47,4.18,-0.3,18.24,60.0-70.0
60.0,2416.0,1.11,-0.7,10.05,-0.95,-0.55,-2.13,18.24,60.0-70.0
60.0,1973.0,1.45,-0.81,13.18,-2.2,-5.19,1.75,18.24,60.0-70.0
60.0,1300.0,-1.07,1.78,10.67,0.68,-3.91,-0.07,18.25,60.0-70.0
60.0,0.0,-0.09,-1.09,7.44,-1.03,0.47,-2.11,18.25,60.0-70.0
60.0,499.0,0.37,-0.58,8.71,0.64,7.05,-0.72,18.25,60.0-70.0
60.0,1707.0,-1.28,-3.86,9.72,-3.77,3.17,-3.29,18.24,60.0-70.0
60.0,2418.0,-1.38,-0.74,9.36,-1.29,3.78,-0.27,18.26,60.0-70.0
60.0,2000.0,0.47,2.02,10.43,1.18,-4.47,1.2,18.26,60.0-70.0
60.0,400.0,-0.04,2.18,10.68,4.43,-2.59,2.4,18.24,60.0-70.0
60.0,0.0,-1.49,1.12,7.93,1.84,3.88,0.62,18.26,60.0-70.0
60.0,713.0,-0.53,-2.36,9.41,-2.51,0.52,-2.68,18.26,60.0-70.0
60.0,2108.0,0.74,-0.94,11.72,-2.75,-2.05,0.82,18.26,60.0-70.0
60.0,2263.0,0.59,0.93,11.14,0.47,-1.69,-0.92,18.25,60.0-70.0
60.0,1367.0,1.01,1.01,11.11,0.94,-6.9,3.29,18.23,60.0-70.0
60.0,16.0,-1.55,0.92,7.2,1.43,4.73,0.25,18.25,60.0-70.0
60.0,487.0,-0.26,-3.45,9.54,-3.85,2.69,-3.2,18.24,60.0-70.0
60.0,1003.0,-1.07,-1.53,8.68,-0.14,8.41,-1.05,18.25,60.0-70.0
60.0,2302.0,-0.36,-2.42,8.99,-2.61,0.5,-2.86,18.25,60.0-70.0
60.0,2059.0,0.79,2.86,11.25,3.9,-6.59,3.99,18.26,60.0-70.0
60.0,1188.0,0.52,1.83,9.62,2.44,0.63,1.41,18.26,60.0-70.0
60.0,0.0,-0.67,0.53,7.64,1.98,-0.05,-0.4,18.24,60.0-70.0
60.0,944.0,-0.91,0.2,7.39,1.03,5.66,-0.34,18.25,60.0-70.0
60.0,1579.0,1.34,-0.04,10.84,-0.54,-1.16,-1.85,18.24,60.0-70.0
60.0,2559.0,1.17,0.25,12.65,-0.91,-6.71,2.91,18.26,60.0-70.0
60.0,1591.0,-0.63,2.59,11.09,1.41,-5.43,0.98,18.24,60.0-70.0
60.0,111.0,0.27,2.79,10.78,4.21,-4.81,3.47,18.26,60.0-70.0
60.0,0.0,0.04,-1.21,8.44,0.03,8.16,-1.18,18.24,60.0-70.0
60.0,1275.0,-0.81,-3.59,9.78,-3.84,1.77,-3.21,18.26,60.0-70.0
60.0,2559.0,-0.2,-0.62,10.85,-2.26,-0.08,0.45,18.24,60.0-70.0
60.0,2045.0,1.32,0.81,11.03,0.35,-2.34,-0.89,18.25,60.0-70.0
60.0,1005.0,-0.89,1.44,9.33,3.7,0.41,0.92,18.26,60.0-70.0
60.0,176.0,-1.78,0.54,7.31,1.03,5.32,-0.19,18.25,60.0-70.0
60.0,531.0,0.08,-2.55,8.11,-2.87,3.08,-3.18,18.26,60.0-70.0
60.0,1570.0,-0.06,-0.74,8.84,0.33,7.43,-0.83,18.27,60.0-70.0
60.0,2928.0,0.01,1.55,11.37,1.03,-3.24,-0.11,18.26,60.0-70.0
60.0,2031.0,0.86,1.7,10.3,2.1,-6.71,3.65,18.25,60.0-70.0
60.0,833.0,0.71,1.9,9.96,1.51,-2.93,0.92,18.24,60.0-70.0
60.0,0.0,-0.51,1.98,9.99,4.39,-0.4,1.5,18.26,60.0-70.0
60.0,511.0,-1.35,-1.17,9.05,-0.33,7.13,-0.74,18.25,60.0-70.0
60.0,1648.0,0.24,-1.78,9.71,-1.91,-1.24,-2.27,18.24,60.0-70.0
60.0,2454.0,1.33,-0.73,12.6,-2.65,-4.39,1.56,18.27,60.0-70.0
60.0,2026.0,0.23,1.54,11.35,1.12,-2.7,-0.3,18.26,60.0-70.0
60.0,640.0,-0.77,0.16,7.58,1.7,1.86,-0.83,18.23,60.0-70.0
60.0,0.0,-1.13,0.22,7.32,0.39,5.61,-0.25,18.24,60.0-70.0
60.0,497.0,-0.1,-3.95,9.99,-4.35,3.17,-3.52,18.24,60.0-70.0
60.0,2354.0,-1.13,-1.0,9.16,-0.04,7.38,-0.72,18.27,60.0-70.0
60.0,2159.0,-1.02,2.1,10.6,1.15,-4.55,0.56,18.27,60.0-70.0
60.0,1765.0,0.68,2.36,10.47,3.75,-4.85,3.18,18.24,60.0-70.0
60.0,951.0,0.31,1.13,9.25,1.78,2.09,0.37,18.25,60.0-70.0
60.0,74.0,-0.87,0.31,8.28,1.83,0.69,-0.69,18.24,60.0-70.0
60.0,1603.0,-0.99,-0.58,9.73,-1.68,2.46,0.05,18.23,60.0-70.0
60.0,2003.0,1.32,-0.24,10.26,-0.43,-1.39,-1.63,18.26,60.0-70.0
60.0,2605.0,1.31,-0.65,12.79,-1.93,-5.46,2.28,18.26,60.0-70.0
60.0,1327.0,-1.03,1.97,10.73,1.05,-3.77,0.33,18.26,60.0-70.0
60.0,0.0,0.27,-1.36,7.55,-1.27,0.82,-1.96,18.26,60.0-70.0
60.0,96.0,0.27,-0.25,8.4,1.09,7.03,-0.48,18.23,60.0-70.0
60.0,1154.0,-1.21,-3.99,10.03,-3.85,2.24,-3.27,18.24,60.0-70.0
60.0,2757.0,-1.33,-0.84,9.36,-1.36,4.59,-0.53,18.24,60.0-70.0
60.0,2492.0,-0.01,2.01,10.21,1.02,-4.23,0.65,18.26,60.0-70.0
60.0,1249.0,0.11,2.38,10.94,4.4,-3.07,2.42,18.23,60.0-70.0
60.0,59.0,-1.1,0.77,7.92,1.34,4.55,0.13,18.24,60.0-70.0
60.0,689.0,-0.19,-1.16,7.47,-0.69,0.61,-2.02,18.25,60.0-70.0
60.0,1664.0,0.41,-0.34,11.48,-2.6,-1.56,1.03,18.23,60.0-70.0
60.0,2523.0,1.06,1.02,10.82,1.12,-1.56,-0.79,18.27,60.0-70.0
60.0,2221.0,0.88,0.32,11.84,-0.11,-6.47,3.23,18.25,60.0-70.0
60.0,1351.0,-0.74,1.77,9.94,0.74,-3.51,0.24,18.25,60.0-70.0
60.0,0.0,1.07,-2.64,8.51,-3.16,0.88,-2.85,18.23,60.0-70.0
60.0,717.0,0.05,-0.46,9.11,0.71,7.64,-0.88,18.23,60.0-70.0
60.0,1645.0,-1.37,-3.33,10.13,-3.29,0.21,-2.69,18.24,60.0-70.0
60.0,2928.0,-0.56,-0.48,10.17,-1.64,1.89,0.43,18.24,60.0-70.0
60.0,1845.0,0.25,1.59,9.62,0.93,-1.89,0.5,18.24,60.0-70.0
60.0,1497.0,-0.13,2.31,10.93,4.71,-2.23,2.2,18.23,60.0-70.0
60.0,416.0,-1.7,1.1,7.62,1.76,6.04,0.5,18.24,60.0-70.0
60.0,977.0,0.18,-0.99,7.42,-0.81,-0.46,-1.73,18.21,60.0-70.0
60.0,1667.0,0.96,-0.93,11.68,-3.3,-2.09,0.82,18.23,60.0-70.0
60.0,2626.0,0.98,0.4,10.73,0.36,-1.33,-1.47,18.24,60.0-70.0
60.0,2358.0,1.22,0.03,12.76,-0.63,-7.81,3.11,18.22,60.0-70.0
60.0,1325.0,-1.11,1.98,9.89,0.89,-4.24,0.31,18.24,60.0-70.0
60.0,0.0,1.07,-2.53,7.75,-2.84,0.46,-2.91,18.24,60.0-70.0
60.0,631.0,0.34,-0.75,9.17,0.54,9.06,-0.85,18.25,60.0-70.0
60.0,2022.0,-1.79,-3.98,10.19,-3.85,1.62,-2.75,18.24,60.0-70.0
60.0,2927.0,-1.04,-1.1,10.43,-2.52,2.4,-0.04,18.24,60.0-70.0
60.0,2221.0,0.07,2.24,9.45,1.66,-2.64,0.8,18.23,60.0-70.0
60.0,1444.0,0.19,3.32,10.5,6.01,-3.51,3.01,18.23,60.0-70.0
60.0,0.0,-1.4,1.77,7.48,2.73,6.93,0.5,18.25,60.0-70.0
60.0,605.0,-0.23,-0.16,6.78,0.73,1.39,-1.78,18.23,60.0-70.0
60.0,1797.0,0.37,-1.41,11.7,-3.77,-1.83,0.05,18.25,60.0-70.0
60.0,2928.0,1.33,-0.19,11.06,-0.39,-2.95,-1.73,18.24,60.0-70.0
60.0,2420.0,1.57,-0.32,13.79,-1.47,-9.8,3.07,18.22,60.0-70.0
60.0,1563.0,-1.4,1.96,10.03,0.91,-4.9,0.48,18.22,60.0-70.0
60.0,135.0,0.74,-1.76,7.12,-1.84,1.3,-2.33,18.25,60.0-70.0
60.0,480.0,0.39,-0.54,9.08,0.54,9.32,-0.56,18.26,60.0-70.0
60.0,2067.0,-1.86,-3.98,10.28,-3.59,2.06,-2.83,18.24,60.0-70.0
60.0,2755.0,-1.14,-0.62,9.93,-1.42,2.85,-0.25,18.23,60.0-70.0
60.0,2185.0,-0.08,1.86,9.75,0.91,-2.73,0.22,18.22,60.0-70.0
