Speed,Voice,Acceleration X,Acceleration Y,Acceleration Z,Gyro X,Gyro Y,Gyro Z,Temperature,Speed_Range
60.0,1570.0,0.13,0.13,10.32,-0.45,-0.24,0.33,18.23,60.0-70.0
60.0,2096.0,-0.51,-0.45,9.79,-0.66,0.15,-0.45,18.24,60.0-70.0
60.0,2022.0,0.01,-0.16,10.11,0.39,-2.66,0.05,18.22,60.0-70.0
60.0,1834.0,0.19,-0.01,9.95,0.39,-0.44,0.54,18.24,60.0-70.0
60.0,1535.0,0.39,0.19,10.38,-0.01,-0.57,-0.86,18.23,60.0-70.0
60.0,1789.0,-0.71,-0.61,9.68,-0.57,0.41,-2.3,18.22,60.0-70.0
60.0,1526.0,0.03,-0.28,10.13,0.51,-2.67,-1.24,18.22,60.0-70.0
60.0,1599.0,0.06,-0.1,10.26,-0.1,-0.46,0.72,18.24,60.0-70.0
60.0,1328.0,-0.32,0.24,10.34,-0.31,0.34,0.6,18.24,60.0-70.0
60.0,1535.0,-0.51,0.2,9.34,-0.11,0.34,0.97,18.26,60.0-70.0
60.0,1259.0,-0.02,-0.91,10.03,-1.1,-1.54,1.47,18.25,60.0-70.0
60.0,1418.0,0.17,0.61,9.32,0.67,1.59,1.4,18.22,60.0-70.0
60.0,1870.0,-0.49,0.06,9.8,0.06,0.44,-0.62,18.23,60.0-70.0
60.0,1291.0,0.67,-0.52,10.3,-0.08,-2.34,-0.45,18.24,60.0-70.0
60.0,1427.0,-0.37,0.4,9.78,0.88,0.2,0.13,18.22,60.0-70.0
60.0,1572.0,-0.53,0.09,10.08,0.24,0.24,-1.84,18.26,60.0-70.0
60.0,1328.0,-0.31,0.01,9.85,0.91,-1.05,-0.72,18.25,60.0-70.0
60.0,1567.0,-0.23,0.64,9.77,0.01,-0.06,1.38,18.24,60.0-70.0
60.0,1015.0,-0.01,-0.31,9.08,-1.06,1.27,-0.18,18.24,60.0-70.0
60.0,1214.0,0.28,-0.32,9.29,-0.23,1.1,0.16,18.23,60.0-70.0
60.0,1313.0,-0.03,-0.11,10.12,0.04,-0.26,1.49,18.2,60.0-70.0
60.0,989.0,-1.24,-0.22,9.48,-0.11,2.59,-1.18,18.22,60.0-70.0
60.0,1462.0,-0.36,-0.29,9.82,-0.19,-0.37,-0.36,18.23,60.0-70.0
60.0,1510.0,0.62,-0.21,9.94,0.35,-0.57,0.27,18.22,60.0-70.0
60.0,1251.0,-0.71,-0.45,9.51,-0.89,2.99,-2.11,18.23,60.0-70.0
60.0,1143.0,-0.8,0.13,9.74,1.09,-0.89,-0.5,18.22,60.0-70.0
60.0,1424.0,0.57,0.19,10.14,0.31,-0.87,1.11,18.24,60.0-70.0
60.0,1329.0,-0.76,-0.49,9.48,-1.35,2.23,-0.82,18.22,60.0-70.0
60.0,730.0,-0.18,-0.2,9.95,0.3,-1.27,0.56,18.23,60.0-70.0
60.0,1424.0,0.34,1.08,10.04,0.79,0.92,1.18,18.24,60.0-70.0
60.0,1115.0,-1.08,-0.61,9.09,-0.65,2.58,-1.3,18.23,60.0-70.0
60.0,1149.0,0.6,-0.76,9.57,0.1,-1.86,-0.18,18.22,60.0-70.0
60.0,1040.0,0.3,0.84,10.33,1.08,1.04,-0.25,18.23,60.0-70.0
60.0,1237.0,-0.98,0.28,9.75,0.53,-0.4,-0.53,18.22,60.0-70.0
60.0,1003.0,0.34,-1.1,9.95,-0.36,-1.89,-0.08,18.21,60.0-70.0
60.0,1047.0,-0.25,0.25,9.88,-0.26,1.11,-0.68,18.22,60.0-70.0
60.0,1041.0,0.26,0.78,9.72,1.03,-1.77,0.79,18.24,60.0-70.0
60.0,1168.0,0.54,1.78,10.24,0.6,-0.4,2.45,18.24,60.0-70.0
60.0,998.0,-0.38,-1.15,9.54,-1.5,3.01,-1.52,18.24,60.0-70.0
60.0,954.0,-0.51,-0.16,10.06,0.64,-1.91,-0.02,18.22,60.0-70.0
60.0,1200.0,0.45,2.07,10.42,1.55,0.03,0.8,18.22,60.0-70.0
60.0,1280.0,-0.78,0.88,9.54,0.7,-0.47,-0.07,18.24,60.0-70.0
60.0,690.0,0.58,-1.88,9.78,-0.62,-1.42,-0.95,18.23,60.0-70.0
60.0,915.0,-0.12,0.18,9.75,-0.17,1.43,-1.75,18.24,60.0-70.0
60.0,790.0,-0.04,1.36,10.25,1.81,-2.78,0.91,18.23,60.0-70.0
60.0,982.0,0.58,2.74,9.93,1.78,-0.02,2.91,18.22,60.0-70.0
60.0,1231.0,-0.79,-1.85,8.74,-1.64,3.04,-1.9,18.23,60.0-70.0
60.0,1109.0,0.91,-0.87,9.75,0.04,-1.65,0.39,18.23,60.0-70.0
60.0,1092.0,-0.25,1.85,10.58,0.6,-0.37,0.47,18.22,60.0-70.0
60.0,1066.0,0.69,1.92,10.03,2.28,-1.51,1.41,18.24,60.0-70.0
60.0,693.0,-0.2,-2.28,9.44,-0.98,0.75,-0.86,18.23,60.0-70.0
60.0,905.0,-0.25,-1.2,9.12,-1.03,2.82,-3.61,18.22,60.0-70.0
60.0,1439.0,0.32,0.36,9.96,0.94,-1.98,-0.08,18.23,60.0-70.0
60.0,687.0,0.43,2.68,11.05,1.14,-2.05,1.23,18.23,60.0-70.0
60.0,665.0,-0.77,-3.79,9.97,-2.89,1.77,-2.25,18.23,60.0-70.0
60.0,704.0,-0.76,-2.12,8.89,-1.01,0.96,-0.02,18.22,60.0-70.0
60.0,1453.0,0.43,-0.5,9.41,-0.84,3.02,-2.16,18.22,60.0-70.0
60.0,1398.0,0.2,0.83,10.23,0.54,-2.81,1.53,18.22,60.0-70.0
60.0,482.0,-0.37,0.74,9.07,0.1,-0.75,1.32,18.24,60.0-70.0
60.0,563.0,-0.61,-4.19,9.96,-3.0,2.12,-3.3,18.24,60.0-70.0
60.0,1139.0,-0.88,-1.71,8.51,-0.1,2.49,-1.23,18.23,60.0-70.0
60.0,1781.0,0.24,-0.36,9.12,-0.68,3.04,-3.36,18.23,60.0-70.0
60.0,1339.0,0.38,2.16,10.17,3.52,-1.14,1.98,18.25,60.0-70.0
60.0,287.0,-0.92,1.14,8.97,0.73,-0.31,1.27,18.22,60.0-70.0
60.0,576.0,-0.65,-3.34,9.63,-3.03,0.47,-2.11,18.24,60.0-70.0
60.0,1338.0,-0.47,-1.6,8.8,0.21,3.84,-0.08,18.23,60.0-70.0
60.0,1811.0,-0.45,2.02,10.63,0.12,-1.51,0.79,18.23,60.0-70.0
60.0,1068.0,0.35,2.04,11.1,2.91,-3.66,3.01,18.23,60.0-70.0
60.0,368.0,-0.05,1.46,9.98,1.43,0.24,1.26,18.23,60.0-70.0
60.0,453.0,-0.8,-1.18,8.55,-0.78,-0.76,-1.4,18.23,60.0-70.0
60.0,1168.0,0.73,-0.56,10.61,-0.95,-1.4,0.02,18.22,60.0-70.0
60.0,1840.0,-0.33,1.04,10.43,0.04,2.12,-1.53,18.22,60.0-70.0
60.0,1674.0,0.23,1.33,10.18,1.14,-4.47,2.56,18.23,60.0-70.0
60.0,152.0,1.23,1.93,10.96,0.99,-1.21,1.41,18.24,60.0-70.0
60.0,865.0,-1.15,-3.39,9.64,-2.65,2.72,-2.36,18.22,60.0-70.0
60.0,1058.0,-0.87,-0.53,8.62,0.04,2.35,0.19,18.23,60.0-70.0
60.0,1702.0,0.46,-0.58,9.09,-0.84,2.56,-2.46,18.22,60.0-70.0
60.0,1694.0,0.52,-0.41,11.05,-0.65,-1.53,0.97,18.22,60.0-70.0
60.0,603.0,-0.78,1.01,9.69,0.96,-0.38,0.8,18.25,60.0-70.0
60.0,749.0,-0.16,-1.53,9.02,-1.36,-1.02,-1.59,18.23,60.0-70.0
60.0,1069.0,0.48,-0.32,9.46,1.31,2.7,-0.04,18.21,60.0-70.0
60.0,1565.0,-1.22,-2.39,8.79,-1.85,1.74,-2.4,18.22,60.0-70.0
60.0,1884.0,0.44,1.13,9.99,1.18,-3.49,2.53,18.22,60.0-70.0
60.0,1279.0,1.26,1.38,10.83,0.39,-0.6,0.95,18.23,60.0-70.0
60.0,411.0,-1.07,0.93,9.68,1.84,-0.87,1.05,18.22,60.0-70.0
60.0,646.0,-0.49,0.46,9.73,0.31,-1.01,0.86,18.23,60.0-70.0
60.0,1154.0,0.52,-0.54,9.16,-0.26,1.82,-2.56,18.22,60.0-70.0
60.0,1907.0,0.29,-0.56,10.93,-0.98,-1.71,1.03,18.22,60.0-70.0
60.0,1479.0,-0.67,1.54,10.19,0.68,0.24,-0.95,18.22,60.0-70.0
60.0,697.0,0.36,1.27,10.22,2.07,-2.44,2.19,18.22,60.0-70.0
60.0,401.0,0.36,0.2,9.26,1.57,1.68,0.37,18.22,60.0-70.0
60.0,1295.0,-0.94,-2.68,9.76,-2.54,0.52,-1.91,18.23,60.0-70.0
60.0,1283.0,-0.54,0.17,9.15,0.19,1.91,0.86,18.22,60.0-70.0
60.0,1952.0,0.26,0.11,9.07,0.33,1.89,-1.82,18.23,60.0-70.0
60.0,1360.0,-0.72,1.12,10.58,2.3,-1.1,1.49,18.24,60.0-70.0
60.0,427.0,-0.54,0.39,9.9,-0.01,-0.29,0.59,18.22,60.0-70.0
60.0,818.0,0.39,-1.3,9.44,-1.35,-1.42,-1.4,18.2,60.0-70.0
60.0,1343.0,0.38,0.71,9.2,2.27,2.06,0.22,18.21,60.0-70.0
60.0,1801.0,-0.39,0.92,9.42,1.02,2.01,-1.93,18.2,60.0-70.0
60.0,1711.0,0.52,0.03,9.89,0.35,-2.01,1.75,18.2,60.0-70.0
60.0,1535.0,0.39,0.77,10.2,-0.28,-0.72,-0.07,18.23,60.0-70.0
60.0,323.0,-0.81,1.18,10.6,2.33,-1.01,1.73,18.23,60.0-70.0
60.0,943.0,-0.36,0.56,8.71,1.49,3.59,0.82,18.22,60.0-70.0
60.0,1535.0,-0.02,-1.7,9.33,-1.21,-0.53,-1.63,18.19,60.0-70.0
60.0,1633.0,0.04,-0.78,10.55,-1.53,0.14,1.05,18.22,60.0-70.0
60.0,1635.0,-0.21,1.02,9.15,1.25,1.78,-1.75,18.22,60.0-70.0
60.0,1078.0,-0.37,0.61,10.0,1.61,-1.72,0.21,18.22,60.0-70.0
60.0,347.0,-0.93,0.58,9.68,0.99,0.98,0.45,18.22,60.0-70.0
60.0,1290.0,-0.08,-2.58,9.97,-3.06,-1.34,-2.01,18.21,60.0-70.0
60.0,1373.0,-0.33,0.27,8.64,1.57,4.26,-0.07,18.22,60.0-70.0
60.0,1824.0,-0.7,1.68,9.89,0.88,0.27,-0.72,18.21,60.0-70.0
60.0,1776.0,0.82,1.38,10.2,1.99,-2.43,2.65,18.21,60.0-70.0
60.0,1152.0,0.47,0.79,10.16,0.09,-0.09,0.51,18.24,60.0-70.0
60.0,257.0,-0.98,1.11,10.22,2.77,-1.28,0.91,18.2,60.0-70.0
60.0,907.0,-1.0,0.08,8.62,0.8,4.53,-0.02,18.21,60.0-70.0
60.0,1987.0,0.7,-0.8,9.12,0.01,-0.38,-2.16,18.22,60.0-70.0
60.0,2357.0,0.64,-0.89,11.54,-2.1,-0.73,1.09,18.22,60.0-70.0
60.0,1648.0,-0.71,1.41,9.87,0.97,-0.06,-1.11,18.2,60.0-70.0
60.0,695.0,-0.0,0.12,8.86,0.77,-1.57,-0.47,18.21,60.0-70.0
60.0,531.0,-0.62,0.69,8.55,1.32,3.25,0.51,18.22,60.0-70.0
60.0,970.0,-0.58,-3.32,10.37,-3.58,-0.06,-2.31,18.22,60.0-70.0
60.0,2017.0,-1.75,-0.46,8.27,0.73,7.06,-0.53,18.22,60.0-70.0
60.0,2186.0,-0.54,1.67,10.29,0.18,-3.1,-0.16,18.24,60.0-70.0
60.0,1986.0,1.38,2.21,11.26,2.79,-4.61,3.01,18.22,60.0-70.0
60.0,524.0,0.19,1.47,10.0,1.37,-0.73,1.03,18.23,60.0-70.0
60.0,445.0,-0.57,1.01,9.21,2.48,-2.12,0.34,18.2,60.0-70.0
60.0,1190.0,-1.0,-1.2,9.06,-1.39,4.99,-0.62,18.22,60.0-70.0
60.0,2559.0,0.87,-0.45,9.52,-0.33,0.66,-2.1,18.22,60.0-70.0
60.0,2593.0,0.94,-0.56,12.32,-1.74,-2.99,2.05,18.21,60.0-70.0
60.0,1950.0,-0.62,1.74,10.84,0.48,-3.89,0.22,18.21,60.0-70.0
60.0,0.0,0.29,-0.81,7.81,-0.59,-0.37,-1.41,18.2,60.0-70.0
60.0,284.0,-0.07,0.08,8.01,1.46,6.41,-0.39,18.21,60.0-70.0
60.0,1339.0,-1.35,-3.56,9.88,-3.21,1.72,-3.18,18.21,60.0-70.0
60.0,2471.0,-1.32,-1.18,8.78,-1.26,5.6,-0.82,18.2,60.0-70.0
60.0,2185.0,0.73,1.75,10.67,0.54,-5.13,0.5,18.22,60.0-70.0
60.0,1283.0,-0.04,2.43,11.68,3.9,-3.71,2.46,18.19,60.0-70.0
60.0,0.0,-1.34,1.7,8.48,2.27,1.05,1.35,18.2,60.0-70.0
60.0,628.0,0.22,-0.81,7.71,-0.57,-0.0,-1.29,18.23,60.0-70.0
60.0,2054.0,0.98,-1.49,11.1,-3.15,0.5,0.54,18.23,60.0-70.0
60.0,2341.0,0.36,0.7,11.19,0.06,-1.01,-1.0,18.19,60.0-70.0
60.0,2350.0,0.87,0.89,11.18,0.19,-6.39,3.35,18.2,60.0-70.0
60.0,662.0,0.88,2.38,10.81,1.35,-6.03,1.29,18.22,60.0-70.0
60.0,316.0,-0.22,-3.56,9.68,-3.41,2.93,-3.44,18.21,60.0-70.0
60.0,1067.0,-2.01,-1.23,8.2,0.65,9.92,-1.32,18.2,60.0-70.0
60.0,2553.0,-0.04,-2.4,8.98,-2.55,0.41,-2.98,18.21,60.0-70.0
60.0,2928.0,1.3,-1.52,12.11,-3.33,-0.61,0.39,18.18,60.0-70.0
60.0,1831.0,0.3,2.02,9.71,2.47,-0.73,1.41,18.22,60.0-70.0
60.0,64.0,-0.85,1.0,7.97,2.18,-0.64,0.28,18.22,60.0-70.0
60.0,897.0,-0.42,0.39,7.42,1.25,4.96,0.27,18.22,60.0-70.0
60.0,1772.0,-0.78,-3.67,9.22,-3.18,4.53,-3.14,18.2,60.0-70.0
60.0,2929.0,0.58,-0.4,12.55,-1.5,-5.4,2.28,18.2,60.0-70.0
60.0,2259.0,-0.07,2.24,11.31,0.94,-6.53,0.72,18.19,60.0-70.0
60.0,959.0,0.6,2.81,11.54,3.72,-6.16,3.53,18.2,60.0-70.0
60.0,356.0,-0.11,1.93,9.19,2.37,-0.46,1.34,18.22,60.0-70.0
60.0,909.0,-1.05,-3.63,9.01,-3.12,3.07,-3.24,18.2,60.0-70.0
60.0,2302.0,-0.09,-1.43,9.96,-2.58,2.75,-0.27,18.21,60.0-70.0
60.0,2927.0,0.98,-0.09,11.03,-0.75,-0.66,-1.85,18.2,60.0-70.0
60.0,1987.0,0.48,-0.1,12.13,-1.23,-5.8,2.57,18.19,60.0-70.0
60.0,336.0,-1.75,1.23,7.56,1.47,2.24,0.77,18.2,60.0-70.0
60.0,1161.0,0.31,-2.59,8.64,-2.43,2.56,-2.72,18.2,60.0-70.0
60.0,1840.0,-1.02,-0.9,7.9,1.0,9.11,-1.14,18.21,60.0-70.0
60.0,2546.0,-0.41,-2.96,8.91,-2.75,1.88,-3.14,18.2,60.0-70.0
60.0,2640.0,1.17,2.14,10.99,2.41,-6.39,3.41,18.19,60.0-70.0
60.0,1673.0,0.71,1.78,10.23,1.69,-2.3,1.11,18.2,60.0-70.0
60.0,154.0,-0.96,1.12,9.04,2.74,-1.1,0.72,18.2,60.0-70.0
60.0,1038.0,-0.98,0.5,8.19,1.11,2.53,0.48,18.23,60.0-70.0
60.0,2198.0,0.97,-0.91,10.16,-1.06,0.08,-2.05,18.22,60.0-70.0
60.0,2927.0,0.34,-0.93,12.04,-2.14,-2.81,1.63,18.22,60.0-70.0
60.0,2166.0,-0.3,1.5,11.19,0.39,-4.06,-0.18,18.23,60.0-70.0
60.0,1132.0,0.95,1.66,10.95,1.96,-5.19,2.94,18.17,60.0-70.0
60.0,720.0,-0.32,0.31,7.97,1.78,5.43,-0.07,18.21,60.0-70.0
60.0,1441.0,-0.95,-3.27,9.43,-2.89,2.58,-2.83,18.18,60.0-70.0
60.0,2271.0,-1.0,-0.87,8.57,-0.78,5.45,-0.39,18.19,60.0-70.0
60.0,2782.0,0.63,-0.94,9.6,-0.75,1.25,-2.22,18.2,60.0-70.0
60.0,2179.0,-0.3,2.2,11.2,3.57,-3.54,2.69,18.19,60.0-70.0
60.0,894.0,-0.9,1.13,9.13,1.34,-0.5,1.34,18.17,60.0-70.0
60.0,851.0,0.42,-1.19,8.64,-0.69,-0.6,-1.2,18.19,60.0-70.0
60.0,1645.0,-0.36,-0.07,8.23,1.55,5.58,-0.33,18.18,60.0-70.0
60.0,2609.0,-0.1,1.39,10.16,1.12,-0.14,-1.3,18.18,60.0-70.0
60.0,2467.0,0.69,0.88,10.77,0.7,-3.89,2.51,18.19,60.0-70.0
60.0,1701.0,0.26,1.56,10.59,0.73,-2.67,0.4,18.18,60.0-70.0
60.0,702.0,-0.53,1.33,10.4,2.57,-1.48,1.67,18.19,60.0-70.0
60.0,1341.0,-0.64,-0.06,8.16,0.93,5.65,-0.34,18.19,60.0-70.0
60.0,2448.0,0.47,-1.75,9.7,-2.05,-1.13,-2.08,18.19,60.0-70.0
60.0,2527.0,0.28,-0.19,11.08,-1.55,-0.11,1.26,18.19,60.0-70.0
60.0,2160.0,-0.09,1.94,9.92,1.87,-1.28,-0.4,18.19,60.0-70.0
60.0,1074.0,-0.55,-0.16,9.13,1.06,-0.28,-0.28,18.19,60.0-70.0
60.0,757.0,-0.96,-0.4,8.85,0.41,3.57,-0.22,18.2,60.0-70.0
60.0,1826.0,-0.67,-3.1,9.52,-3.18,1.56,-2.85,18.2,60.0-70.0
60.0,2928.0,0.32,0.08,11.76,-1.03,-3.68,2.43,18.21,60.0-70.0
60.0,2415.0,-0.34,2.2,10.45,1.54,-2.14,0.08,18.19,60.0-70.0
60.0,2024.0,0.75,1.59,10.37,2.36,-3.54,2.77,18.18,60.0-70.0
60.0,1424.0,0.29,0.76,9.48,0.47,-0.18,0.16,18.19,60.0-70.0
60.0,1034.0,-0.88,-3.39,10.11,-3.85,0.4,-2.65,18.19,60.0-70.0
60.0,2320.0,-0.74,-0.15,9.18,-0.3,4.29,0.01,18.17,60.0-70.0
60.0,2334.0,0.86,-0.49,9.83,-0.3,-1.04,-1.75,18.19,60.0-70.0
60.0,2918.0,0.63,-0.49,12.05,-1.73,-2.95,1.81,18.19,60.0-70.0
60.0,2209.0,-0.59,0.54,8.69,0.71,1.48,0.39,18.19,60.0-70.0
60.0,538.0,0.02,-0.91,8.22,-0.1,0.64,-1.32,18.19,60.0-70.0
60.0,850.0,-0.44,-0.18,8.12,1.05,5.22,-0.25,18.18,60.0-70.0
60.0,2105.0,-0.78,-3.57,10.06,-3.55,1.46,-2.86,18.19,60.0-70.0
60.0,2698.0,0.59,0.47,11.51,-0.08,-4.65,2.82,18.2,60.0-70.0
60.0,2559.0,-0.04,1.94,10.58,0.79,-3.98,0.57,18.2,60.0-70.0
60.0,1582.0,-0.08,1.89,10.8,3.2,-2.72,2.31,18.2,60.0-70.0
60.0,654.0,-0.61,0.48,8.85,0.62,1.02,0.43,18.2,60.0-70.0
60.0,1296.0,-0.22,-2.65,9.73,-2.54,0.09,-2.66,18.21,60.0-70.0
60.0,2176.0,-0.05,-0.54,10.51,-1.68,1.19,0.54,18.2,60.0-70.0
60.0,2723.0,0.62,1.03,10.23,0.86,-1.34,-1.08,18.17,60.0-70.0
60.0,2591.0,0.77,0.37,11.64,-0.2,-4.2,2.68,18.19,60.0-70.0
60.0,1473.0,-1.63,0.52,8.2,1.28,3.49,0.5,18.22,60.0-70.0
60.0,880.0,-0.02,-2.32,8.64,-2.66,0.95,-2.3,18.22,60.0-70.0
60.0,1383.0,-0.25,-0.36,8.53,0.7,6.55,-0.6,18.2,60.0-70.0
60.0,2258.0,-0.59,-2.8,9.62,-2.34,1.22,-2.63,18.18,60.0-70.0
60.0,2930.0,0.74,1.38,10.44,1.46,-5.17,2.8,18.17,60.0-70.0
60.0,2401.0,1.05,1.34,10.29,0.62,-3.05,0.71,18.18,60.0-70.0
60.0,827.0,-0.37,1.42,10.44,3.23,-1.69,1.03,18.19,60.0-70.0
60.0,778.0,-1.76,1.16,8.15,1.75,2.67,0.65,18.17,60.0-70.0
60.0,1717.0,0.22,-1.16,8.95,-0.71,0.58,-2.49,18.19,60.0-70.0
60.0,2704.0,1.16,-1.06,12.02,-2.4,-1.98,1.12,18.19,60.0-70.0
60.0,2875.0,-0.57,1.24,11.17,0.33,-2.34,-0.47,18.21,60.0-70.0
60.0,1885.0,0.99,1.81,10.81,1.7,-6.7,3.55,18.22,60.0-70.0
60.0,398.0,-0.29,0.17,7.67,1.31,4.97,0.14,18.2,60.0-70.0
60.0,1033.0,-0.84,-4.0,9.89,-3.59,3.05,-3.11,18.18,60.0-70.0
60.0,2009.0,-1.9,-1.34,8.37,-0.62,7.63,-0.85,18.19,60.0-70.0
60.0,2928.0,0.73,-1.62,9.48,-1.5,-0.03,-2.56,18.2,60.0-70.0
60.0,2717.0,0.56,2.93,11.37,4.25,-4.91,3.26,18.19,60.0-70.0
60.0,1388.0,-0.67,1.71,8.93,2.22,0.85,1.14,18.2,60.0-70.0
60.0,294.0,-0.28,-0.05,7.58,0.99,0.58,-0.92,18.19,60.0-70.0
60.0,1181.0,-0.51,0.0,7.27,0.93,6.67,-0.5,18.18,60.0-70.0
60.0,2481.0,1.07,0.4,10.99,-0.13,-1.86,-1.49,18.19,60.0-70.0
60.0,2926.0,0.78,0.41,12.4,-0.62,-6.45,2.85,18.2,60.0-70.0
60.0,2416.0,-0.09,2.35,11.25,1.32,-6.61,1.03,18.21,60.0-70.0
60.0,767.0,0.41,2.83,10.71,4.25,-5.2,3.35,18.19,60.0-70.0
60.0,266.0,-0.41,-0.8,7.63,0.65,9.9,-1.2,18.18,60.0-70.0
60.0,1714.0,-0.75,-3.51,9.92,-3.29,1.92,-2.95,18.21,60.0-70.0
60.0,2785.0,-0.62,-0.91,10.35,-1.93,2.69,0.18,18.17,60.0-70.0
60.0,2617.0,0.83,0.37,10.46,0.35,-1.82,-1.38,18.19,60.0-70.0
60.0,2261.0,-0.48,1.56,10.4,3.49,-1.97,1.53,18.21,60.0-70.0
60.0,1161.0,-1.45,0.82,8.22,1.4,3.4,0.48,18.2,60.0-70.0
60.0,1019.0,0.18,-1.43,7.95,-1.42,0.55,-1.99,18.18,60.0-70.0
60.0,1706.0,0.16,0.38,7.97,1.38,6.29,-0.4,18.21,60.0-70.0
60.0,2490.0,0.19,1.02,10.56,0.7,-0.7,-1.12,18.19,60.0-70.0
60.0,2927.0,0.54,0.42,11.12,0.28,-4.41,2.45,18.2,60.0-70.0
60.0,2089.0,0.12,1.21,10.37,0.09,-3.46,0.25,18.21,60.0-70.0
60.0,843.0,-0.13,1.94,11.11,3.46,-3.28,2.25,18.2,60.0-70.0
60.0,1189.0,-0.55,-0.14,8.38,1.0,7.29,-0.45,18.2,60.0-70.0
60.0,1640.0,-0.25,-2.41,9.19,-1.65,0.23,-2.31,18.17,60.0-70.0
60.0,2493.0,-0.07,-1.04,10.44,-2.39,1.46,0.53,18.19,60.0-70.0
60.0,2598.0,0.26,0.54,9.85,0.7,0.21,-1.59,18.19,60.0-70.0
60.0,2199.0,-0.67,1.7,10.54,3.44,-2.85,1.26,18.19,60.0-70.0
60.0,986.0,-1.7,1.23,8.47,1.81,3.16,0.77,18.18,60.0-70.0
60.0,1062.0,0.56,-1.88,8.56,-1.85,-0.81,-1.93,18.19,60.0-70.0
60.0,1525.0,-0.36,0.06,8.0,1.47,8.04,-0.59,18.17,60.0-70.0
60.0,2835.0,-0.19,1.01,10.56,0.45,-0.98,-1.23,18.2,60.0-70.0
60.0,2928.0,1.22,1.16,11.15,0.99,-6.49,3.2,18.2,60.0-70.0
60.0,2798.0,0.35,1.84,10.34,0.74,-3.62,0.72,18.19,60.0-70.0
60.0,934.0,-0.12,2.67,11.21,4.68,-4.03,2.51,18.17,60.0-70.0
60.0,865.0,-1.18,-0.97,8.42,0.38,10.15,-1.14,18.19,60.0-70.0
60.0,1846.0,-0.45,-2.84,9.21,-2.42,0.08,-2.66,18.18,60.0-70.0
60.0,2928.0,0.56,-1.11,11.59,-3.16,-0.26,0.62,18.19,60.0-70.0
60.0,2797.0,0.54,0.79,10.88,0.76,-2.5,-1.11,18.19,60.0-70.0
60.0,1808.0,-0.85,1.45,9.61,3.7,-1.62,0.79,18.19,60.0-70.0
60.0,313.0,-2.0,0.93,7.32,1.54,6.26,-0.08,18.21,60.0-70.0
60.0,1111.0,0.52,-2.12,7.94,-2.05,1.8,-2.72,18.18,60.0-70.0
60.0,1875.0,-0.56,-0.02,7.9,1.0,9.63,-1.01,18.2,60.0-70.0
60.0,2621.0,-0.21,1.06,10.96,0.44,-3.2,-0.68,18.18,60.0-70.0
60.0,2301.0,1.33,0.99,11.33,0.8,-7.14,3.26,18.17,60.0-70.0
60.0,1183.0,0.33,1.16,10.16,0.16,-3.54,0.63,18.19,60.0-70.0
60.0,0.0,-0.18,2.18,11.03,4.02,-4.11,2.4,18.19,60.0-70.0
60.0,0.0,-1.21,-0.61,8.55,0.39,9.0,-0.59,18.19,60.0-70.0
60.0,1885.0,-0.37,-2.43,9.21,-1.38,0.34,-2.43,18.18,60.0-70.0
60.0,2741.0,0.58,-1.13,11.28,-2.78,0.55,0.57,18.2,60.0-70.0
60.0,2624.0,0.17,0.73,10.52,0.53,-1.05,-1.58,18.16,60.0-70.0
60.0,1049.0,-0.67,-0.22,9.5,-0.14,1.42,-1.06,17.72,60.0-70.0
60.0,1433.0,-0.15,-0.11,9.78,0.33,-1.72,-0.37,17.72,60.0-70.0
60.0,1607.0,0.14,0.28,9.99,0.64,0.01,0.53,17.71,60.0-70.0
60.0,1407.0,0.05,0.28,9.97,0.31,0.29,-0.8,17.71,60.0-70.0
60.0,1601.0,-0.6,-0.06,9.51,0.15,1.97,-2.39,17.72,60.0-70.0
60.0,1635.0,-0.16,-0.04,9.92,0.44,-2.32,-1.35,17.73,60.0-70.0
60.0,1705.0,0.36,0.09,10.17,0.3,-0.76,0.54,17.72,60.0-70.0
60.0,1402.0,-0.15,0.36,10.02,0.09,0.81,0.54,17.72,60.0-70.0
60.0,1767.0,-0.58,-0.67,9.34,-0.48,1.11,-0.11,17.72,60.0-70.0
60.0,1266.0,0.17,-0.54,9.98,-0.62,-1.94,1.37,17.7,60.0-70.0
60.0,1690.0,0.33,0.56,9.65,0.3,0.82,1.78,17.71,60.0-70.0
60.0,1792.0,-0.39,0.08,10.04,0.27,0.38,-0.36,17.72,60.0-70.0
60.0,1533.0,-0.37,0.09,9.24,0.93,-0.03,-0.5,17.71,60.0-70.0
60.0,1437.0,0.11,0.02,9.95,0.38,-0.35,-0.22,17.69,60.0-70.0
60.0,1194.0,-0.16,-0.06,9.67,0.42,1.04,-1.87,17.7,60.0-70.0
60.0,1618.0,-0.62,0.13,8.93,0.82,-0.08,-1.05,17.71,60.0-70.0
60.0,1371.0,0.18,-0.13,9.74,-0.02,-1.76,0.18,17.71,60.0-70.0
60.0,851.0,0.32,0.02,9.67,-0.43,2.53,0.02,17.69,60.0-70.0
60.0,1516.0,-0.62,-0.62,9.64,-0.55,0.99,0.11,17.71,60.0-70.0
60.0,1311.0,0.08,-0.38,9.67,-0.14,-1.11,1.26,17.69,60.0-70.0
60.0,945.0,-0.09,0.5,10.13,0.09,0.7,1.15,17.7,60.0-70.0
60.0,1461.0,-0.46,-0.46,10.13,-0.37,-1.27,-0.28,17.72,60.0-70.0
60.0,1615.0,0.39,-0.23,10.01,0.39,-0.73,0.24,17.73,60.0-70.0
60.0,763.0,0.11,-0.15,9.46,-0.49,2.26,-1.34,17.73,60.0-70.0
60.0,1439.0,-0.84,-0.55,10.22,-0.4,-1.42,-0.86,17.7,60.0-70.0
60.0,1495.0,0.19,-0.25,10.06,-0.1,-1.25,0.57,17.7,60.0-70.0
60.0,1091.0,0.06,-0.27,9.56,-0.91,2.24,-0.51,17.68,60.0-70.0
60.0,1268.0,-0.11,-0.08,9.64,0.21,-0.98,0.31,17.69,60.0-70.0
60.0,1310.0,0.21,-0.36,9.95,-0.45,-0.99,1.38,17.7,60.0-70.0
60.0,1462.0,-0.21,-0.4,9.63,-0.71,2.03,-0.8,17.71,60.0-70.0
60.0,829.0,-0.22,-0.1,9.97,0.83,-1.21,-0.01,17.72,60.0-70.0
60.0,1168.0,0.18,1.39,10.01,1.22,0.3,0.74,17.71,60.0-70.0
60.0,1525.0,-0.65,-0.77,9.16,-0.48,2.43,-2.08,17.72,60.0-70.0
60.0,1006.0,0.33,-0.51,9.75,0.57,-1.47,-0.25,17.69,60.0-70.0
60.0,1107.0,0.11,1.26,10.25,1.03,0.53,0.54,17.72,60.0-70.0
60.0,1504.0,-0.72,0.42,9.73,0.3,-0.64,0.48,17.7,60.0-70.0
60.0,1083.0,0.3,-1.1,9.82,-0.65,-1.27,0.6,17.7,60.0-70.0
60.0,1035.0,-0.02,0.53,9.97,-0.3,1.2,-0.19,17.72,60.0-70.0
60.0,1319.0,-0.02,0.85,9.68,1.09,-1.65,0.48,17.71,60.0-70.0
60.0,1351.0,0.52,1.44,10.09,0.89,-0.24,1.46,17.72,60.0-70.0
60.0,1417.0,-0.51,-0.93,9.56,-0.84,2.88,-2.51,17.73,60.0-70.0
60.0,1023.0,-0.27,0.21,10.1,1.31,-2.2,-0.4,17.69,60.0-70.0
60.0,1246.0,0.33,2.13,10.52,1.58,-0.15,0.8,17.7,60.0-70.0
60.0,1565.0,-0.86,0.71,9.4,0.79,0.05,0.42,17.72,60.0-70.0
60.0,1392.0,0.31,-1.6,9.87,-0.72,-1.88,0.05,17.7,60.0-70.0
60.0,1371.0,0.06,0.52,9.69,-0.14,1.89,-0.62,17.73,60.0-70.0
60.0,796.0,-0.29,1.75,10.43,1.7,-3.56,1.96,17.73,60.0-70.0
60.0,1264.0,0.67,2.71,10.09,1.9,0.44,2.6,17.7,60.0-70.0
60.0,1450.0,-1.07,-2.32,8.54,-1.9,3.8,-3.24,17.71,60.0-70.0
60.0,1566.0,1.04,-1.0,9.94,-0.16,-1.86,-0.69,17.69,60.0-70.0
60.0,1459.0,-0.41,2.0,10.62,0.71,0.01,-0.5,17.7,60.0-70.0
60.0,1168.0,0.69,2.26,10.53,2.5,-3.19,1.7,17.72,60.0-70.0
60.0,801.0,0.1,-2.6,9.36,-0.98,1.45,-1.09,17.72,60.0-70.0
60.0,1282.0,-0.71,-1.54,8.73,-1.49,3.46,-3.07,17.69,60.0-70.0
60.0,1734.0,0.9,0.13,10.16,0.39,-2.05,1.03,17.73,60.0-70.0
60.0,771.0,-0.02,2.74,11.19,0.68,-2.26,1.9,17.71,60.0-70.0
60.0,827.0,-0.94,-3.56,9.88,-2.72,1.05,-2.04,17.7,60.0-70.0
60.0,1135.0,-0.5,-2.41,8.61,-0.72,2.3,-0.88,17.71,60.0-70.0
60.0,1895.0,0.1,-0.9,9.08,-1.06,3.69,-3.32,17.71,60.0-70.0
60.0,1855.0,0.64,0.41,10.45,0.33,-2.69,0.56,17.71,60.0-70.0
60.0,723.0,-0.75,1.39,8.95,1.17,-0.73,1.01,17.7,60.0-70.0
60.0,693.0,-0.76,-3.89,9.71,-2.8,1.51,-3.29,17.7,60.0-70.0
60.0,1250.0,-0.78,-1.95,8.37,-0.23,3.69,-1.05,17.7,60.0-70.0
60.0,2405.0,-0.06,-0.88,8.86,-1.3,3.72,-2.75,17.71,60.0-70.0
60.0,1450.0,0.22,2.38,10.65,3.75,-2.29,3.4,17.72,60.0-70.0
60.0,541.0,-0.84,1.37,9.15,1.2,-0.67,1.87,17.71,60.0-70.0
60.0,1008.0,-0.71,-3.14,9.31,-2.55,0.78,-2.33,17.71,60.0-70.0
60.0,1785.0,-0.39,-1.73,8.77,0.5,4.17,-1.0,17.72,60.0-70.0
60.0,2047.0,-0.47,2.2,10.9,0.42,-1.59,0.21,17.72,60.0-70.0
60.0,1514.0,0.26,2.36,11.16,3.23,-4.56,2.88,17.7,60.0-70.0
60.0,0.0,0.02,1.72,9.98,1.69,-0.58,1.32,17.72,60.0-70.0
60.0,432.0,-0.81,-1.17,8.5,-0.59,-0.7,-1.12,17.72,60.0-70.0
60.0,1667.0,0.74,-0.68,10.55,-1.49,-0.96,0.54,17.7,60.0-70.0
60.0,2299.0,-0.19,0.85,10.52,-0.48,1.91,-0.83,17.71,60.0-70.0
60.0,1813.0,0.28,1.17,10.5,1.03,-5.08,3.18,17.71,60.0-70.0
60.0,763.0,1.18,1.81,11.03,1.25,-1.42,1.26,17.72,60.0-70.0
60.0,802.0,-1.35,-3.02,9.21,-2.03,3.25,-2.71,17.71,60.0-70.0
60.0,1430.0,-0.62,-0.31,8.6,0.36,2.36,-0.37,17.71,60.0-70.0
60.0,1903.0,0.34,-0.66,9.32,-0.77,3.08,-2.97,17.71,60.0-70.0
60.0,1893.0,0.14,-0.56,10.62,-0.69,-1.85,0.97,17.71,60.0-70.0
60.0,1014.0,-0.5,1.05,9.89,0.48,-1.8,1.06,17.72,60.0-70.0
60.0,784.0,0.01,-1.5,9.53,-1.2,-0.38,-1.14,17.72,60.0-70.0
60.0,1206.0,-0.08,0.22,8.87,1.66,2.53,0.79,17.71,60.0-70.0
60.0,1680.0,-0.78,-2.2,9.08,-2.1,1.59,-2.25,17.7,60.0-70.0
60.0,1949.0,0.53,0.97,10.3,1.47,-2.38,2.42,17.69,60.0-70.0
60.0,1575.0,0.59,1.22,10.41,0.36,-0.58,0.56,17.72,60.0-70.0
60.0,495.0,-0.43,0.6,9.73,1.66,-1.19,0.43,17.71,60.0-70.0
60.0,998.0,-0.23,0.64,9.91,1.05,-0.11,0.72,17.71,60.0-70.0
60.0,1630.0,-0.01,-0.39,9.01,-0.05,2.36,-2.59,17.7,60.0-70.0
60.0,1810.0,0.33,-0.58,10.66,-0.89,-1.85,1.17,17.71,60.0-70.0
60.0,1789.0,-0.51,1.41,10.19,0.33,0.47,-0.57,17.71,60.0-70.0
60.0,272.0,0.01,1.42,10.33,1.96,-2.35,2.56,17.72,60.0-70.0
60.0,692.0,0.43,0.2,9.35,1.54,2.11,0.82,17.7,60.0-70.0
60.0,1520.0,-1.1,-2.8,9.43,-2.46,1.2,-2.25,17.71,60.0-70.0
60.0,1840.0,-0.27,-0.61,9.38,-0.62,1.02,0.24,17.7,60.0-70.0
60.0,2087.0,0.36,-0.19,9.38,0.03,2.4,-2.56,17.67,60.0-70.0
60.0,1325.0,-0.99,1.78,10.47,3.24,-1.16,1.32,17.69,60.0-70.0
60.0,429.0,-0.79,1.28,9.4,1.2,-0.61,0.92,17.72,60.0-70.0
60.0,944.0,0.16,-1.62,9.14,-1.67,-0.5,-1.81,17.71,60.0-70.0
60.0,1359.0,-0.29,-0.03,8.93,1.8,4.33,0.02,17.72,60.0-70.0
60.0,1989.0,-0.64,0.91,10.31,-0.02,0.32,-1.03,17.7,60.0-70.0
60.0,2147.0,0.95,0.93,10.32,0.64,-4.44,3.04,17.7,60.0-70.0
60.0,1019.0,1.3,1.33,10.97,0.36,-2.46,1.06,17.71,60.0-70.0
60.0,125.0,-0.86,1.57,10.54,3.0,-2.03,1.56,17.71,60.0-70.0
60.0,858.0,-1.32,-0.42,8.52,0.67,4.81,-0.47,17.71,60.0-70.0
60.0,1826.0,0.09,-1.33,8.53,-0.69,2.36,-2.98,17.69,60.0-70.0
60.0,2366.0,0.6,-1.34,11.08,-2.05,-0.52,0.42,17.7,60.0-70.0
60.0,1872.0,0.18,1.34,10.16,1.2,-0.95,1.2,17.71,60.0-70.0
60.0,314.0,-0.18,0.38,8.73,1.02,-1.91,-0.18,17.71,60.0-70.0
60.0,320.0,0.29,1.0,8.68,1.92,1.78,0.98,17.71,60.0-70.0
60.0,914.0,-1.28,-3.24,9.98,-3.01,1.51,-2.39,17.69,60.0-70.0
60.0,1942.0,0.26,-0.79,10.98,-1.58,-2.66,1.81,17.7,60.0-70.0
60.0,2441.0,0.38,1.53,10.83,-0.1,-3.72,0.33,17.71,60.0-70.0
60.0,1465.0,0.43,2.29,11.82,3.08,-4.11,3.06,17.7,60.0-70.0
60.0,110.0,-0.2,1.8,10.13,1.93,-1.21,1.64,17.7,60.0-70.0
60.0,935.0,-1.35,-3.14,8.48,-2.19,2.7,-3.4,17.71,60.0-70.0
60.0,1313.0,0.03,-1.53,9.51,-2.11,2.76,-0.65,17.72,60.0-70.0
60.0,2143.0,0.56,-0.17,10.07,-0.3,2.65,-2.31,17.71,60.0-70.0
60.0,2490.0,0.38,-0.54,11.05,-1.41,-3.56,2.05,17.72,60.0-70.0
60.0,1122.0,-1.07,1.85,8.44,2.09,-0.23,1.61,17.71,60.0-70.0
60.0,0.0,0.12,-1.86,8.98,-1.7,0.53,-1.98,17.71,60.0-70.0
60.0,907.0,-1.31,-0.43,8.02,1.57,7.87,-0.51,17.72,60.0-70.0
60.0,1750.0,-0.95,-3.12,8.32,-2.45,3.17,-3.44,17.7,60.0-70.0
60.0,2619.0,1.3,1.68,11.27,1.37,-6.32,3.15,17.72,60.0-70.0
60.0,1984.0,1.22,1.93,11.37,1.34,-4.12,1.59,17.71,60.0-70.0
60.0,366.0,-0.81,1.96,9.74,3.58,-2.78,1.37,17.7,60.0-70.0
60.0,0.0,-0.81,1.83,8.04,2.62,0.64,1.38,17.68,60.0-70.0
60.0,1345.0,0.9,-1.36,9.09,-1.21,3.1,-2.88,17.7,60.0-70.0
60.0,2609.0,0.54,-1.65,11.84,-2.84,-0.98,1.0,17.7,60.0-70.0
60.0,2649.0,-0.6,1.11,11.36,-0.59,-3.4,-0.14,17.7,60.0-70.0
60.0,819.0,0.85,2.12,11.63,2.16,-6.32,3.44,17.71,60.0-70.0
60.0,309.0,-0.09,0.44,8.0,2.34,5.68,0.02,17.69,60.0-70.0
60.0,1180.0,-1.31,-3.45,8.83,-2.6,3.59,-3.41,17.72,60.0-70.0
60.0,1606.0,-0.76,-1.67,8.59,-1.78,5.2,-1.17,17.69,60.0-70.0
60.0,2094.0,0.78,-0.8,9.51,-0.77,2.61,-2.95,17.71,60.0-70.0
60.0,2102.0,-0.51,2.55,11.09,3.98,-3.89,2.2,17.7,60.0-70.0
60.0,0.0,-1.22,1.78,8.74,2.02,-0.78,1.72,17.68,60.0-70.0
60.0,356.0,0.15,-1.75,8.89,-1.56,0.01,-1.76,17.72,60.0-70.0
60.0,1238.0,-0.85,-0.45,8.03,1.67,7.38,-0.31,17.71,60.0-70.0
60.0,1934.0,-0.6,1.05,10.99,-0.07,-1.74,-0.48,17.72,60.0-70.0
60.0,2507.0,1.03,1.49,11.12,1.29,-5.94,3.36,17.72,60.0-70.0
60.0,1104.0,1.12,1.89,10.97,1.41,-3.85,1.59,17.68,60.0-70.0
60.0,105.0,-0.59,1.55,9.75,2.8,-2.64,1.08,17.71,60.0-70.0
60.0,717.0,-1.1,-1.13,8.44,-0.71,5.54,-0.92,17.71,60.0-70.0
60.0,1585.0,0.51,-1.23,9.36,-1.23,2.78,-3.0,17.71,60.0-70.0
60.0,2239.0,0.37,-1.3,11.28,-2.23,-1.19,0.83,17.68,60.0-70.0
60.0,1904.0,-0.12,1.19,11.19,-0.19,-2.76,-0.14,17.7,60.0-70.0
60.0,381.0,-0.08,-0.44,8.67,-0.2,-0.67,-0.88,17.72,60.0-70.0
60.0,499.0,-0.09,0.21,8.3,1.95,4.68,0.27,17.69,60.0-70.0
60.0,986.0,-1.33,-3.08,8.71,-2.26,3.52,-2.94,17.69,60.0-70.0
60.0,2227.0,-0.47,-1.63,8.78,-1.52,3.72,-0.56,17.71,60.0-70.0
60.0,2370.0,1.47,1.78,11.45,0.83,-4.32,1.3,17.7,60.0-70.0
60.0,528.0,-0.55,2.13,10.62,3.41,-2.7,1.87,17.71,60.0-70.0
60.0,0.0,-0.79,1.83,9.02,2.01,-1.69,1.63,17.69,60.0-70.0
60.0,1041.0,-0.19,-1.77,9.56,-1.53,0.34,-1.9,17.69,60.0-70.0
60.0,1717.0,0.21,-1.64,11.01,-2.31,0.55,0.22,17.67,60.0-70.0
60.0,2255.0,-0.44,1.18,10.78,-0.28,-1.74,-0.56,17.7,60.0-70.0
60.0,1664.0,0.8,1.74,11.31,1.69,-4.56,2.98,17.69,60.0-70.0
60.0,310.0,0.81,1.99,10.84,1.66,-2.87,1.73,17.69,60.0-70.0
60.0,658.0,-1.57,-3.25,8.85,-2.54,3.2,-3.06,17.7,60.0-70.0
60.0,1165.0,-0.64,-1.48,8.71,-1.26,3.68,-0.68,17.69,60.0-70.0
60.0,1454.0,0.79,-0.73,9.78,-0.83,2.78,-2.65,17.7,60.0-70.0
60.0,2520.0,0.15,-0.46,10.75,-1.07,-2.11,1.41,17.69,60.0-70.0
60.0,1058.0,-0.77,1.47,9.03,1.66,-1.68,1.56,17.7,60.0-70.0
60.0,359.0,-0.36,-2.16,9.37,-1.82,1.13,-2.19,17.69,60.0-70.0
60.0,745.0,-1.06,-0.88,8.07,1.11,5.9,-0.5,17.67,60.0-70.0
60.0,1841.0,-0.38,-2.7,8.48,-2.42,2.85,-3.27,17.67,60.0-70.0
60.0,2475.0,0.56,2.05,11.27,2.02,-4.44,3.27,17.69,60.0-70.0
60.0,1442.0,0.71,2.13,10.6,1.9,-2.82,1.82,17.72,60.0-70.0
60.0,171.0,-0.74,0.67,8.62,1.73,-0.66,0.24,17.73,60.0-70.0
60.0,83.0,-0.14,0.32,8.55,1.4,0.84,0.51,17.69,60.0-70.0
60.0,2358.0,1.03,-0.31,10.32,-0.94,1.66,-2.3,17.69,60.0-70.0
60.0,2112.0,0.27,-0.09,11.13,-0.68,-3.45,2.08,17.71,60.0-70.0
60.0,1857.0,0.7,2.14,11.2,0.79,-4.96,1.17,17.68,60.0-70.0
60.0,0.0,-0.03,2.08,11.25,3.14,-3.3,2.71,17.7,60.0-70.0
60.0,200.0,-1.1,-0.87,8.11,0.93,6.26,-0.69,17.71,60.0-70.0
60.0,1125.0,-0.3,-2.31,8.77,-2.34,3.14,-3.14,17.7,60.0-70.0
60.0,2179.0,0.44,-1.11,10.79,-1.87,0.15,0.36,17.7,60.0-70.0
60.0,2044.0,-0.02,1.05,10.8,-0.08,-0.15,-1.0,17.71,60.0-70.0
60.0,674.0,-0.57,0.13,8.71,1.28,-0.93,-0.16,17.71,60.0-70.0
60.0,108.0,-0.06,0.28,8.8,1.6,1.4,0.5,17.69,60.0-70.0
60.0,1062.0,-1.21,-3.11,9.31,-2.51,3.01,-2.77,17.7,60.0-70.0
60.0,1381.0,-1.02,-0.69,8.35,0.12,4.33,-0.39,17.71,60.0-70.0
60.0,1535.0,0.62,1.71,11.14,0.45,-3.48,0.56,17.7,60.0-70.0
60.0,1794.0,-0.45,1.96,11.16,2.95,-2.78,2.43,17.71,60.0-70.0
60.0,279.0,-0.42,1.69,9.75,1.63,-2.0,1.59,17.7,60.0-70.0
60.0,611.0,-0.03,-0.29,8.54,0.19,-0.32,-0.86,17.7,60.0-70.0
60.0,1118.0,0.35,-1.51,10.25,-2.08,1.24,0.05,17.69,60.0-70.0
60.0,1808.0,-0.01,0.4,10.25,-0.28,1.59,-1.63,17.68,60.0-70.0
60.0,2100.0,0.62,0.35,10.49,-0.1,-4.18,2.3,17.7,60.0-70.0
60.0,759.0,1.28,1.68,11.36,0.65,-3.65,0.82,17.71,60.0-70.0
60.0,411.0,-1.06,-2.9,9.57,-2.49,2.21,-2.63,17.7,60.0-70.0
60.0,1014.0,-1.28,-0.6,8.05,0.85,4.99,-0.4,17.7,60.0-70.0
60.0,1630.0,0.38,-1.75,8.84,-1.59,2.7,-2.94,17.67,60.0-70.0
60.0,2538.0,0.22,-1.45,10.96,-2.03,0.26,0.42,17.71,60.0-70.0
60.0,1933.0,-0.17,1.81,10.03,1.57,-2.49,1.73,17.72,60.0-70.0
60.0,80.0,0.06,-0.03,8.77,0.48,-1.53,-0.37,17.71,60.0-70.0
60.0,606.0,0.22,0.5,8.87,2.02,2.61,0.63,17.7,60.0-70.0
60.0,1205.0,-1.42,-3.01,9.0,-2.4,3.3,-2.86,17.69,60.0-70.0
60.0,2175.0,0.41,-0.11,10.49,-0.48,-3.4,1.93,17.69,60.0-70.0
60.0,1695.0,1.09,1.57,11.25,0.09,-4.0,0.65,17.71,60.0-70.0
60.0,830.0,-0.26,2.04,11.46,3.0,-3.86,2.56,17.68,60.0-70.0
60.0,0.0,-0.78,1.99,9.96,1.96,-2.32,2.07,17.7,60.0-70.0
60.0,821.0,-0.55,-2.24,8.3,-1.76,3.45,-3.12,17.69,60.0-70.0
60.0,1341.0,0.37,-1.94,10.28,-2.26,1.46,-0.19,17.7,60.0-70.0
60.0,1841.0,-0.39,0.17,10.29,-0.48,1.88,-2.04,17.69,60.0-70.0
60.0,1446.0,0.74,0.21,10.37,-0.07,-3.22,1.82,17.69,60.0-70.0
60.0,594.0,-0.22,1.6,8.82,2.62,0.12,1.37,17.7,60.0-70.0
60.0,17.0,-0.8,-2.71,9.89,-2.43,0.9,-2.34,17.72,60.0-70.0
60.0,400.0,-1.64,-0.74,8.0,0.68,5.69,-0.45,17.68,60.0-70.0
60.0,1983.0,0.08,-2.01,8.34,-1.41,3.17,-3.14,17.69,60.0-70.0
60.0,2219.0,0.55,2.04,11.87,2.56,-3.95,3.06,17.69,60.0-70.0
60.0,746.0,-0.01,2.18,10.37,1.83,-2.3,2.08,17.69,60.0-70.0
60.0,102.0,-0.05,0.86,8.68,1.38,-2.2,0.18,17.7,60.0-70.0
60.0,224.0,0.14,0.81,8.46,2.39,2.29,0.8,17.69,60.0-70.0
60.0,1196.0,0.34,-0.34,10.15,-0.63,2.32,-2.53,17.72,60.0-70.0
60.0,2064.0,0.49,-0.16,11.07,-1.04,-3.56,1.96,17.69,60.0-70.0
60.0,1951.0,0.9,2.06,11.34,0.33,-5.28,0.97,17.69,60.0-70.0
60.0,0.0,-0.13,2.66,11.68,3.57,-4.11,3.11,17.7,60.0-70.0
60.0,180.0,-1.21,-0.66,8.01,1.35,7.52,-0.71,17.71,60.0-70.0
60.0,1059.0,-0.66,-2.78,8.4,-2.23,3.26,-3.17,17.68,60.0-70.0
60.0,1793.0,0.36,-1.63,10.25,-2.71,1.92,-0.08,17.7,60.0-70.0
60.0,2091.0,0.4,0.31,10.38,-0.28,1.6,-1.81,17.7,60.0-70.0
60.0,959.0,-0.75,1.15,9.73,2.65,-2.21,0.74,17.7,60.0-70.0
60.0,0.0,-1.0,1.25,8.62,1.95,0.59,1.0,17.68,60.0-70.0
60.0,629.0,-0.24,-2.42,9.42,-2.42,0.47,-2.36,17.69,60.0-70.0
60.0,1307.0,-0.97,-0.11,8.18,1.34,6.09,-0.4,17.69,60.0-70.0
60.0,1812.0,-0.32,1.3,10.82,0.16,-1.74,-0.54,17.71,60.0-70.0
60.0,1709.0,0.58,1.62,10.7,1.76,-4.0,2.86,17.7,60.0-70.0
60.0,642.0,0.91,1.17,10.57,0.62,-2.32,1.11,17.7,60.0-70.0
60.0,106.0,-0.93,1.05,9.78,2.59,-1.74,0.79,17.69,60.0-70.0
60.0,491.0,-0.98,-0.62,8.71,-0.4,4.06,-0.05,17.69,60.0-70.0
60.0,1786.0,0.91,-0.53,9.31,-0.02,1.77,-2.2,17.66,60.0-70.0
60.0,2128.0,0.5,-1.33,11.26,-2.13,-1.1,1.18,17.69,60.0-70.0
60.0,1605.0,-0.46,1.31,10.41,0.13,-2.35,-0.56,17.69,60.0-70.0
60.0,0.0,0.51,-0.47,8.79,-0.13,-1.6,-1.08,17.68,60.0-70.0
60.0,304.0,-0.26,0.75,8.37,2.68,4.87,0.45,17.71,60.0-70.0
60.0,720.0,-1.33,-3.3,9.49,-2.98,1.2,-2.82,17.68,60.0-70.0
60.0,1872.0,-1.01,-1.31,8.73,-1.07,5.39,-0.68,17.69,60.0-70.0
60.0,2074.0,0.84,1.58,11.2,0.19,-4.5,0.68,17.69,60.0-70.0
60.0,1378.0,-0.46,2.54,11.52,3.82,-3.71,2.71,17.7,60.0-70.0
60.0,0.0,-1.03,1.99,9.05,2.21,-0.98,1.67,17.69,60.0-70.0
60.0,272.0,0.4,-0.61,8.29,-0.14,-0.46,-1.41,17.7,60.0-70.0
60.0,1459.0,0.46,-1.73,10.56,-2.81,2.01,-0.05,17.7,60.0-70.0
60.0,2271.0,0.03,0.56,10.68,-0.3,-0.23,-1.52,17.7,60.0-70.0
60.0,1826.0,0.98,0.41,11.15,-0.22,-4.9,2.92,17.7,60.0-70.0
60.0,902.0,0.86,1.57,11.14,0.35,-5.08,1.14,17.71,60.0-70.0
60.0,0.0,-0.46,-2.98,9.65,-2.89,1.31,-2.71,17.7,60.0-70.0
60.0,676.0,-1.49,-0.5,8.07,1.06,7.71,-0.62,17.71,60.0-70.0
60.0,1423.0,0.15,-1.94,8.56,-1.44,1.51,-2.68,17.7,60.0-70.0
60.0,2166.0,0.65,-1.36,11.05,-2.78,0.72,0.31,17.71,60.0-70.0
60.0,1456.0,0.53,1.33,10.13,1.11,-1.37,0.95,17.69,60.0-70.0
60.0,0.0,-0.64,0.92,8.99,2.19,-1.83,0.07,17.68,60.0-70.0
60.0,10.0,-0.73,1.03,8.65,1.81,1.82,0.79,17.71,60.0-70.0
60.0,1075.0,-0.54,-2.92,10.01,-2.63,1.16,-2.37,17.69,60.0-70.0
60.0,1712.0,0.1,-1.38,11.54,-2.29,-1.94,1.58,17.68,60.0-70.0
60.0,2151.0,-0.16,1.33,10.73,0.01,-3.17,-0.11,17.7,60.0-70.0
60.0,1097.0,1.01,2.0,11.46,2.54,-4.43,3.12,17.69,60.0-70.0
60.0,0.0,0.11,1.44,10.16,1.09,-1.66,1.14,17.7,60.0-70.0
60.0,677.0,-1.35,-3.12,9.07,-2.68,1.34,-2.88,17.69,60.0-70.0
60.0,1243.0,-0.54,-1.01,9.02,-1.27,4.94,-0.76,17.72,60.0-70.0
60.0,1815.0,0.6,-0.36,9.2,0.03,1.97,-2.56,17.71,60.0-70.0
60.0,2219.0,0.67,-0.92,11.65,-2.03,-2.29,1.32,17.7,60.0-70.0
60.0,894.0,-1.11,1.38,9.01,1.66,0.67,1.03,17.68,60.0-70.0
60.0,0.0,0.3,-0.96,8.61,-0.69,-1.47,-1.49,17.72,60.0-70.0
60.0,660.0,-0.26,0.3,8.18,2.16,5.83,0.11,17.68,60.0-70.0
60.0,1687.0,-1.11,-3.26,9.41,-2.69,1.2,-2.48,17.69,60.0-70.0
60.0,1866.0,1.15,0.13,11.06,-0.31,-4.5,2.69,17.72,60.0-70.0
60.0,1798.0,0.7,1.42,10.91,0.15,-3.54,0.77,17.71,60.0-70.0
60.0,624.0,-0.53,2.43,11.57,3.84,-4.33,2.54,17.69,60.0-70.0
60.0,0.0,-1.0,1.69,9.05,1.86,-0.0,1.38,17.69,60.0-70.0
60.0,897.0,-0.14,-2.41,8.67,-1.71,1.46,-3.01,17.69,60.0-70.0
60.0,1664.0,0.47,-1.49,10.71,-2.78,1.65,-0.11,17.68,60.0-70.0
