Speed,Voice,Acceleration X,Acceleration Y,Acceleration Z,Gyro X,Gyro Y,Gyro Z,Temperature,Speed_Range
60.0,1571.0,-0.24,0.19,9.73,0.13,-0.66,0.26,27.79,60.0-70.0
60.0,1805.0,-0.06,-0.21,9.83,-1.0,0.3,1.1,27.79,60.0-70.0
60.0,1302.0,-0.69,-0.35,9.59,-0.55,1.06,-0.08,27.77,60.0-70.0
60.0,1408.0,-0.93,0.08,9.64,0.39,0.37,0.21,27.79,60.0-70.0
60.0,1572.0,-0.1,0.44,9.79,0.32,-0.65,1.79,27.78,60.0-70.0
60.0,1621.0,-0.09,-0.28,9.8,-1.16,0.54,1.68,27.79,60.0-70.0
60.0,1498.0,-0.89,-0.15,9.6,-0.33,0.77,-0.58,27.81,60.0-70.0
60.0,1297.0,-0.67,0.49,9.44,1.05,0.13,-0.64,27.79,60.0-70.0
60.0,1686.0,0.1,0.16,9.9,-0.17,-0.24,-0.12,27.77,60.0-70.0
60.0,1170.0,-0.66,-0.25,9.66,-0.36,0.98,-1.63,27.81,60.0-70.0
60.0,1428.0,-0.71,0.3,9.76,0.71,-0.47,-1.72,27.8,60.0-70.0
60.0,1258.0,0.02,0.47,10.02,0.19,-1.34,0.49,27.79,60.0-70.0
60.0,1088.0,-0.38,-0.4,10.04,-0.78,-0.11,0.5,27.8,60.0-70.0
60.0,637.0,-0.63,0.29,9.76,0.41,-1.5,0.6,27.8,60.0-70.0
60.0,1344.0,-0.19,0.39,9.8,-0.17,-1.02,2.12,27.8,60.0-70.0
60.0,500.0,-0.14,-0.5,9.86,-0.94,0.79,1.05,27.79,60.0-70.0
60.0,1054.0,-0.81,0.5,9.42,0.42,-0.31,-0.41,27.78,60.0-70.0
60.0,1168.0,0.31,-0.03,9.97,-0.19,-0.65,0.6,27.79,60.0-70.0
60.0,1291.0,-0.19,-0.55,9.91,-0.37,0.53,-1.19,27.79,60.0-70.0
60.0,720.0,-0.52,0.4,9.62,0.44,-1.26,-1.74,27.79,60.0-70.0
60.0,1181.0,0.08,-0.59,10.28,-1.03,-0.97,-0.12,27.79,60.0-70.0
60.0,820.0,-0.52,-0.17,9.85,0.41,0.51,-1.21,27.79,60.0-70.0
60.0,1661.0,-0.49,0.49,9.93,-0.2,-1.46,0.32,27.79,60.0-70.0
60.0,511.0,-0.68,-0.49,9.81,-1.16,0.98,1.34,27.78,60.0-70.0
60.0,1030.0,-1.05,1.01,9.16,1.26,1.04,1.04,27.78,60.0-70.0
60.0,667.0,-0.24,0.07,9.5,-0.8,0.43,1.8,27.77,60.0-70.0
60.0,1568.0,-0.6,-0.42,9.47,-0.25,1.35,0.08,27.79,60.0-70.0
60.0,1393.0,0.04,0.58,10.14,0.42,-2.46,-0.4,27.79,60.0-70.0
60.0,135.0,-0.96,-0.77,10.19,-1.33,-0.34,-1.3,27.77,60.0-70.0
60.0,403.0,-0.66,1.1,9.18,1.61,0.42,-1.14,27.8,60.0-70.0
60.0,1420.0,0.4,0.39,9.97,-0.4,0.11,-0.03,27.82,60.0-70.0
60.0,1011.0,-1.15,-0.41,9.25,-0.01,1.52,-0.55,27.79,60.0-70.0
60.0,982.0,0.2,0.63,10.17,-0.2,-2.65,1.42,27.79,60.0-70.0
60.0,869.0,-1.2,-0.76,9.78,-0.97,1.91,0.41,27.76,60.0-70.0
60.0,612.0,-0.47,0.39,10.1,1.17,-2.25,0.72,27.79,60.0-70.0
60.0,1280.0,-0.17,0.05,9.58,-1.27,1.24,1.63,27.79,60.0-70.0
60.0,1456.0,-0.97,-0.21,9.54,0.67,0.01,-1.05,27.79,60.0-70.0
60.0,858.0,0.88,0.48,10.06,-0.49,-0.3,0.38,27.79,60.0-70.0
60.0,848.0,-1.37,-0.71,9.61,-0.87,2.33,-1.83,27.78,60.0-70.0
60.0,871.0,0.51,0.82,9.67,1.46,-1.9,-0.4,27.79,60.0-70.0
60.0,707.0,-0.65,-1.03,10.24,-1.78,0.51,-0.93,27.78,60.0-70.0
60.0,1047.0,-0.77,0.92,9.35,1.84,-1.29,0.37,27.79,60.0-70.0
60.0,1039.0,1.09,0.35,10.22,-0.68,-0.56,2.08,27.8,60.0-70.0
60.0,1845.0,-1.89,-0.47,9.23,0.07,1.72,-0.08,27.78,60.0-70.0
60.0,819.0,0.97,0.67,10.05,-0.26,-1.34,2.26,27.8,60.0-70.0
60.0,1443.0,-1.65,-0.45,9.51,0.01,2.52,-0.64,27.8,60.0-70.0
60.0,1312.0,-0.4,1.0,9.13,1.63,-0.94,0.35,27.79,60.0-70.0
60.0,1232.0,0.01,-0.97,10.5,-1.91,0.21,-0.96,27.8,60.0-70.0
60.0,383.0,-1.01,1.09,8.97,2.04,-0.08,-1.02,27.78,60.0-70.0
60.0,1522.0,0.49,-0.93,10.17,-1.87,1.0,-0.64,27.8,60.0-70.0
60.0,1557.0,-1.49,-0.35,9.38,0.53,1.32,-1.6,27.79,60.0-70.0
60.0,910.0,0.73,0.35,10.04,-0.63,-1.29,1.48,27.82,60.0-70.0
60.0,1237.0,-1.61,-0.31,9.51,0.42,1.15,-0.14,27.8,60.0-70.0
60.0,1219.0,0.73,0.5,10.07,-0.57,-2.04,2.26,27.8,60.0-70.0
60.0,1017.0,-0.78,-0.87,10.0,-1.58,1.55,0.38,27.8,60.0-70.0
60.0,1102.0,-0.08,1.06,9.12,1.57,-0.33,0.85,27.79,60.0-70.0
60.0,1071.0,-0.57,-0.95,10.2,-1.91,0.69,-0.7,27.79,60.0-70.0
60.0,837.0,-0.36,1.12,9.19,1.84,-0.31,-0.56,27.8,60.0-70.0
60.0,1261.0,0.22,0.04,9.8,-1.16,-0.01,0.15,27.8,60.0-70.0
60.0,1520.0,-0.91,-0.03,9.63,1.02,0.02,-1.8,27.81,60.0-70.0
60.0,1243.0,0.4,0.1,10.01,-1.12,-0.34,1.02,27.81,60.0-70.0
60.0,1899.0,-1.08,-0.19,9.55,1.02,0.37,-0.56,27.8,60.0-70.0
60.0,1895.0,0.12,0.56,10.1,-0.11,-3.08,1.8,27.8,60.0-70.0
60.0,1521.0,-1.02,-0.72,9.53,-0.51,2.8,-0.14,27.83,60.0-70.0
60.0,2011.0,0.33,0.73,10.0,0.19,-2.59,1.65,27.79,60.0-70.0
60.0,1679.0,-1.12,-0.77,9.57,-0.66,2.65,-0.96,27.78,60.0-70.0
60.0,1622.0,-1.18,1.08,9.58,1.92,-0.97,-0.38,27.79,60.0-70.0
60.0,1623.0,0.4,-0.88,9.98,-1.93,1.17,-0.67,27.79,60.0-70.0
60.0,1473.0,-1.25,1.04,9.74,1.76,-1.2,-1.07,27.78,60.0-70.0
60.0,1431.0,0.49,-0.96,9.94,-1.85,1.2,-0.34,27.78,60.0-70.0
60.0,1296.0,-1.68,-0.22,9.24,0.79,1.43,-1.27,27.78,60.0-70.0
60.0,1569.0,0.77,0.33,10.26,-1.06,-1.49,1.69,27.78,60.0-70.0
60.0,1569.0,-1.57,-0.24,9.35,0.67,1.18,-0.23,27.78,60.0-70.0
60.0,2583.0,0.72,0.37,10.2,-0.95,-1.49,2.18,27.78,60.0-70.0
60.0,2174.0,-1.09,-0.89,9.65,-1.15,2.56,-0.26,27.8,60.0-70.0
60.0,2293.0,0.29,0.92,9.77,1.0,-1.85,0.95,27.78,60.0-70.0
60.0,2042.0,-1.18,-0.88,9.67,-1.16,2.28,-1.6,27.78,60.0-70.0
60.0,1253.0,0.4,0.93,9.71,1.14,-1.67,-0.02,27.78,60.0-70.0
60.0,1472.0,0.36,-0.86,9.79,-1.71,1.21,-0.49,27.76,60.0-70.0
60.0,1510.0,-1.2,0.96,9.84,1.81,-1.43,-0.64,27.79,60.0-70.0
60.0,1633.0,0.47,-0.84,9.8,-1.84,1.37,0.53,27.78,60.0-70.0
60.0,1619.0,-1.27,0.89,9.87,1.61,-1.37,0.52,27.78,60.0-70.0
60.0,1099.0,0.79,0.44,10.25,-1.0,-1.78,2.21,27.79,60.0-70.0
60.0,2186.0,-1.61,-0.16,9.37,0.73,1.21,-0.21,27.8,60.0-70.0
60.0,1839.0,0.75,0.39,10.26,-1.04,-1.61,1.69,27.8,60.0-70.0
60.0,1790.0,-1.71,-0.15,9.25,0.91,1.15,-1.3,27.8,60.0-70.0
60.0,2192.0,0.26,0.9,9.73,0.93,-1.82,0.35,27.82,60.0-70.0
60.0,1783.0,-1.09,-0.94,9.6,-1.0,2.57,-1.89,27.79,60.0-70.0
60.0,2263.0,0.24,0.93,9.76,1.02,-2.05,0.17,27.81,60.0-70.0
60.0,2130.0,-1.16,-0.99,9.67,-1.1,2.39,-1.36,27.82,60.0-70.0
60.0,1617.0,-1.13,0.99,9.9,1.83,-1.61,0.09,27.8,60.0-70.0
60.0,1949.0,0.44,-1.01,10.07,-2.07,0.92,0.85,27.82,60.0-70.0
60.0,1472.0,-1.25,1.12,9.63,1.72,-1.38,0.98,27.79,60.0-70.0
60.0,1804.0,0.47,-0.96,10.07,-2.13,1.17,0.89,27.78,60.0-70.0
60.0,1806.0,-1.54,-0.07,9.3,0.86,1.15,-0.67,27.79,60.0-70.0
60.0,1669.0,0.67,0.33,10.3,-1.23,-1.23,1.05,27.81,60.0-70.0
60.0,1635.0,-1.57,-0.06,9.33,1.25,0.98,-1.74,27.8,60.0-70.0
60.0,1501.0,0.8,0.24,10.27,-1.27,-1.21,0.41,27.78,60.0-70.0
60.0,1775.0,-0.99,-0.85,9.46,-0.68,3.09,-2.0,27.82,60.0-70.0
60.0,1904.0,0.08,0.74,9.84,0.41,-2.43,0.87,27.8,60.0-70.0
60.0,1398.0,-0.87,-0.88,9.58,-0.72,2.75,-0.92,27.8,60.0-70.0
60.0,1530.0,-0.03,0.72,9.96,0.15,-2.69,1.79,27.81,60.0-70.0
60.0,1681.0,0.23,-1.12,10.41,-2.29,0.6,0.78,27.8,60.0-70.0
60.0,2146.0,-0.92,1.21,9.21,1.95,-0.66,0.92,27.78,60.0-70.0
60.0,1650.0,0.07,-1.09,10.32,-2.29,0.68,-0.02,27.79,60.0-70.0
60.0,990.0,-0.66,1.22,9.19,2.07,-0.82,-0.05,27.77,60.0-70.0
60.0,1264.0,0.34,0.14,9.95,-1.41,-0.54,0.47,27.79,60.0-70.0
60.0,1601.0,-0.98,0.1,9.59,1.51,0.07,-1.68,27.8,60.0-70.0
60.0,1914.0,0.34,0.04,9.94,-1.39,-0.4,0.69,27.78,60.0-70.0
60.0,1363.0,-1.02,0.21,9.61,1.49,-0.07,-0.89,27.8,60.0-70.0
60.0,1677.0,0.12,0.56,9.88,-0.33,-2.5,1.54,27.79,60.0-70.0
60.0,2035.0,-1.03,-0.62,9.58,-0.23,2.39,-0.6,27.79,60.0-70.0
60.0,2085.0,0.28,0.56,9.95,-0.4,-2.34,2.03,27.81,60.0-70.0
60.0,1273.0,-1.16,-0.53,9.51,-0.1,2.13,-0.82,27.79,60.0-70.0
60.0,2419.0,-0.14,1.17,9.11,1.99,-0.24,0.7,27.81,60.0-70.0
60.0,988.0,-0.75,-1.06,10.18,-2.13,1.09,-1.04,27.82,60.0-70.0
60.0,2045.0,0.03,1.08,9.09,1.87,-0.22,-0.14,27.79,60.0-70.0
60.0,794.0,-0.97,-1.13,10.14,-2.1,1.21,-1.43,27.81,60.0-70.0
60.0,1121.0,-0.83,0.57,10.08,1.75,-1.21,-0.95,27.79,60.0-70.0
60.0,894.0,0.17,-0.48,9.61,-1.68,1.06,0.79,27.8,60.0-70.0
60.0,1134.0,-0.89,0.62,10.08,1.69,-1.32,0.17,27.78,60.0-70.0
60.0,1068.0,0.25,-0.67,9.64,-1.82,1.09,1.48,27.81,60.0-70.0
60.0,1637.0,-1.56,-0.27,9.36,0.44,1.37,-0.4,27.79,60.0-70.0
60.0,1737.0,0.85,0.42,10.27,-0.78,-1.98,1.74,27.81,60.0-70.0
60.0,1648.0,-1.67,-0.2,9.35,0.67,1.41,-1.22,27.79,60.0-70.0
60.0,1101.0,0.86,0.34,10.29,-0.92,-1.7,0.69,27.79,60.0-70.0
60.0,2075.0,-1.18,-1.04,9.85,-1.42,2.19,-1.68,27.79,60.0-70.0
60.0,2367.0,0.33,0.9,9.6,1.02,-1.66,0.14,27.79,60.0-70.0
60.0,1819.0,-1.23,-1.05,9.68,-1.3,2.51,-1.46,27.8,60.0-70.0
60.0,1629.0,0.34,0.82,9.74,0.7,-1.93,1.1,27.79,60.0-70.0
60.0,916.0,0.43,-0.96,9.89,-2.0,1.53,0.61,27.81,60.0-70.0
60.0,782.0,-1.17,1.07,9.73,1.78,-1.55,0.82,27.8,60.0-70.0
60.0,1050.0,0.45,-1.12,10.11,-2.28,1.2,0.66,27.8,60.0-70.0
60.0,1213.0,-1.22,1.17,9.45,1.9,-1.17,0.44,27.79,60.0-70.0
60.0,1011.0,0.74,0.29,10.32,-1.23,-1.56,1.22,27.78,60.0-70.0
60.0,937.0,-1.28,-0.02,9.4,1.35,0.75,-1.53,27.79,60.0-70.0
60.0,784.0,0.6,0.21,10.25,-1.27,-1.17,0.53,27.79,60.0-70.0
60.0,2067.0,-1.21,0.04,9.35,1.43,0.63,-1.53,27.82,60.0-70.0
60.0,1264.0,-0.04,0.61,9.94,-0.01,-2.51,0.72,27.8,60.0-70.0
60.0,1339.0,-0.86,-0.81,9.56,-0.55,2.89,-1.11,27.8,60.0-70.0
60.0,1136.0,0.05,0.6,9.9,-0.25,-2.43,1.66,27.81,60.0-70.0
60.0,1127.0,-1.0,-0.72,9.5,-0.4,2.78,-0.61,27.78,60.0-70.0
60.0,945.0,-0.52,1.2,9.14,1.98,-0.51,1.13,27.8,60.0-70.0
60.0,1530.0,-0.32,-1.09,10.4,-2.29,0.56,-0.2,27.81,60.0-70.0
60.0,912.0,-0.31,1.19,9.09,1.99,-0.3,0.29,27.8,60.0-70.0
60.0,1214.0,-0.5,-1.14,10.28,-2.23,0.97,-1.07,27.8,60.0-70.0
60.0,201.0,-0.86,0.41,9.94,1.73,-0.66,-1.31,27.79,60.0-70.0
60.0,978.0,0.18,-0.31,9.71,-1.56,0.18,0.46,27.82,60.0-70.0
60.0,661.0,-0.87,0.51,10.06,1.72,-1.14,-0.7,27.81,60.0-70.0
60.0,1348.0,0.2,-0.39,9.68,-1.68,0.43,1.24,27.81,60.0-70.0
60.0,1213.0,-1.41,-0.43,9.38,0.13,2.1,-0.75,27.79,60.0-70.0
60.0,1271.0,0.51,0.43,10.01,-0.66,-1.79,1.94,27.81,60.0-70.0
60.0,1264.0,-1.55,-0.35,9.27,0.25,1.96,-0.78,27.8,60.0-70.0
60.0,1802.0,0.64,0.4,10.07,-0.94,-1.64,1.17,27.8,60.0-70.0
60.0,1459.0,-1.14,-1.01,9.9,-1.64,2.04,-1.08,27.79,60.0-70.0
60.0,1475.0,0.43,0.91,9.55,1.34,-1.12,0.21,27.8,60.0-70.0
60.0,1070.0,-1.24,-1.12,9.78,-1.62,2.22,-1.63,27.81,60.0-70.0
60.0,1200.0,0.26,0.87,9.63,1.09,-1.5,0.4,27.82,60.0-70.0
60.0,866.0,0.43,-0.93,9.87,-1.84,1.0,0.29,27.81,60.0-70.0
60.0,710.0,-1.16,1.07,9.92,1.87,-1.63,0.26,27.81,60.0-70.0
60.0,832.0,0.35,-0.87,9.93,-1.84,1.47,0.95,27.79,60.0-70.0
60.0,688.0,-1.21,1.13,9.81,1.99,-1.7,0.76,27.8,60.0-70.0
60.0,1201.0,0.83,0.33,10.22,-1.21,-1.56,1.75,27.78,60.0-70.0
60.0,695.0,-1.58,-0.01,9.27,1.14,1.06,-1.08,27.8,60.0-70.0
60.0,1087.0,0.84,0.3,10.3,-1.18,-1.4,0.92,27.8,60.0-70.0
60.0,1421.0,-1.44,-0.01,9.25,1.34,1.09,-1.68,27.81,60.0-70.0
60.0,1421.0,-0.05,0.75,9.9,0.28,-2.45,0.47,27.79,60.0-70.0
60.0,1008.0,-0.85,-0.93,9.57,-0.66,2.91,-1.65,27.8,60.0-70.0
60.0,1526.0,-0.03,0.63,9.87,-0.1,-2.42,1.17,27.81,60.0-70.0
60.0,901.0,-0.95,-0.88,9.51,-0.65,3.03,-0.93,27.79,60.0-70.0
60.0,1859.0,-0.69,1.16,9.27,2.1,-0.89,0.98,27.77,60.0-70.0
60.0,960.0,-0.15,-1.06,10.36,-2.17,0.88,0.32,27.79,60.0-70.0
60.0,367.0,-0.45,1.19,9.12,2.22,-0.6,0.7,27.79,60.0-70.0
60.0,624.0,-0.29,-1.13,10.32,-2.23,0.91,-0.56,27.8,60.0-70.0
60.0,1523.0,-0.89,0.29,9.76,1.69,-0.51,-1.1,27.81,60.0-70.0
60.0,1310.0,0.28,-0.13,9.9,-1.55,-0.53,0.47,27.81,60.0-70.0
60.0,1194.0,-0.9,0.38,9.99,1.64,-0.74,-1.19,27.81,60.0-70.0
60.0,1572.0,0.17,-0.29,9.7,-1.68,0.08,0.81,27.8,60.0-70.0
60.0,1010.0,-1.31,-0.47,9.42,0.06,2.45,-1.21,27.79,60.0-70.0
60.0,1392.0,0.3,0.45,9.89,-0.62,-1.85,1.57,27.8,60.0-70.0
60.0,1093.0,-1.38,-0.44,9.38,0.09,2.22,-0.81,27.81,60.0-70.0
60.0,1094.0,0.55,0.46,10.07,-0.68,-1.84,1.63,27.82,60.0-70.0
60.0,1207.0,-1.09,-1.09,10.01,-1.94,1.61,-0.63,27.78,60.0-70.0
60.0,912.0,0.4,0.99,9.37,1.51,-0.83,0.64,27.79,60.0-70.0
60.0,1072.0,-1.2,-1.09,9.86,-1.73,1.95,-1.33,27.79,60.0-70.0
60.0,1067.0,-1.02,0.85,10.07,1.87,-1.7,-0.78,27.81,60.0-70.0
60.0,448.0,0.39,-0.72,9.74,-1.71,1.08,0.08,27.82,60.0-70.0
60.0,1203.0,-1.1,0.91,10.02,1.86,-1.73,-0.27,27.79,60.0-70.0
60.0,403.0,0.33,-0.83,9.8,-1.9,1.21,0.67,27.78,60.0-70.0
60.0,976.0,-1.65,-0.19,9.29,0.77,1.32,-0.72,27.8,60.0-70.0
60.0,903.0,0.88,0.32,10.27,-1.12,-1.67,1.85,27.79,60.0-70.0
60.0,1722.0,-1.54,-0.1,9.27,0.99,1.26,-0.66,27.79,60.0-70.0
60.0,1808.0,0.83,0.35,10.21,-1.09,-1.4,1.46,27.79,60.0-70.0
60.0,1047.0,-1.02,-0.98,9.59,-1.09,2.69,-1.3,27.79,60.0-70.0
60.0,1492.0,0.19,0.74,9.86,0.39,-2.4,0.55,27.77,60.0-70.0
60.0,1136.0,-0.97,-0.97,9.57,-0.8,2.86,-1.8,27.82,60.0-70.0
60.0,1726.0,0.09,0.73,9.9,0.3,-2.59,0.7,27.8,60.0-70.0
60.0,1271.0,0.26,-1.1,10.18,-2.16,1.29,-0.21,27.8,60.0-70.0
60.0,1639.0,-0.96,1.19,9.3,2.12,-1.02,0.58,27.84,60.0-70.0
60.0,1200.0,0.15,-1.07,10.3,-2.16,1.0,0.35,27.8,60.0-70.0
60.0,951.0,-0.75,1.21,9.21,2.15,-0.71,0.85,27.79,60.0-70.0
60.0,1279.0,0.4,0.17,10.03,-1.49,-0.98,1.69,27.79,60.0-70.0
60.0,365.0,-0.92,0.21,9.64,1.55,-0.19,-0.76,27.8,60.0-70.0
60.0,1691.0,0.31,0.08,9.93,-1.42,-0.71,1.07,27.8,60.0-70.0
60.0,1303.0,-0.81,0.25,9.91,1.6,-0.63,-1.13,27.8,60.0-70.0
60.0,2085.0,0.14,0.53,9.79,-0.3,-2.3,0.78,27.8,60.0-70.0
60.0,1634.0,-1.2,-0.61,9.46,-0.19,2.66,-1.69,27.8,60.0-70.0
60.0,1325.0,0.3,0.47,9.93,-0.46,-2.01,1.17,27.8,60.0-70.0
60.0,1665.0,-1.35,-0.5,9.44,0.01,2.46,-1.13,27.79,60.0-70.0
60.0,2259.0,0.07,1.02,9.28,1.76,-0.68,0.93,27.8,60.0-70.0
60.0,1683.0,-0.87,-1.11,10.01,-1.99,1.35,-0.18,27.82,60.0-70.0
60.0,904.0,0.26,1.03,9.29,1.66,-0.62,0.99,27.82,60.0-70.0
60.0,1339.0,-1.05,-1.07,9.92,-1.91,1.67,-0.78,27.79,60.0-70.0
60.0,1535.0,-0.91,0.84,10.06,1.84,-1.73,-0.47,27.8,60.0-70.0
60.0,1139.0,0.29,-0.56,9.72,-1.65,0.82,0.37,27.8,60.0-70.0
60.0,1531.0,-1.01,0.89,10.05,1.96,-1.92,-0.49,27.8,60.0-70.0
60.0,1312.0,0.32,-0.77,9.75,-1.76,0.92,0.34,27.81,60.0-70.0
60.0,1603.0,-1.74,-0.23,9.22,0.71,1.55,-1.21,27.8,60.0-70.0
60.0,1808.0,0.89,0.28,10.21,-1.06,-1.53,1.46,27.81,60.0-70.0
60.0,2350.0,-1.69,-0.15,9.24,0.86,1.26,-0.76,27.78,60.0-70.0
60.0,1968.0,0.97,0.32,10.29,-1.1,-1.59,1.68,27.79,60.0-70.0
60.0,1743.0,-1.04,-1.05,9.57,-1.24,2.83,-1.02,27.81,60.0-70.0
60.0,1963.0,0.14,0.82,9.74,0.56,-1.98,0.96,27.8,60.0-70.0
60.0,1125.0,-1.06,-0.98,9.51,-0.98,2.94,-1.43,27.79,60.0-70.0
60.0,1711.0,0.07,0.76,9.86,0.41,-2.07,0.61,27.82,60.0-70.0
60.0,1427.0,0.31,-1.03,10.17,-1.99,1.12,-0.34,27.8,60.0-70.0
60.0,1811.0,-0.96,1.23,9.37,2.15,-0.98,0.14,27.8,60.0-70.0
60.0,1707.0,0.2,-1.17,10.36,-2.23,0.91,-0.08,27.8,60.0-70.0
60.0,1562.0,-0.83,1.2,9.21,2.15,-0.97,0.67,27.81,60.0-70.0
60.0,1303.0,0.45,0.1,10.13,-1.49,-1.15,1.68,27.79,60.0-70.0
60.0,1772.0,-1.09,0.14,9.6,1.51,0.02,-0.47,27.8,60.0-70.0
60.0,1535.0,0.34,0.01,9.97,-1.49,-0.66,1.37,27.82,60.0-70.0
60.0,2445.0,-1.01,0.3,9.72,1.6,-0.34,-0.87,27.82,60.0-70.0
60.0,2361.0,0.07,0.55,9.78,-0.33,-2.21,0.89,27.81,60.0-70.0
60.0,2094.0,-1.12,-0.58,9.42,-0.11,2.74,-1.75,27.8,60.0-70.0
60.0,2054.0,0.16,0.57,9.81,-0.43,-2.01,0.84,27.8,60.0-70.0
60.0,1756.0,-1.21,-0.55,9.38,-0.02,2.59,-1.53,27.82,60.0-70.0
60.0,1936.0,0.09,1.01,9.19,1.86,-0.68,0.66,27.81,60.0-70.0
60.0,2512.0,-0.87,-1.09,10.09,-2.05,1.27,-0.34,27.82,60.0-70.0
60.0,1985.0,0.28,1.02,9.3,1.75,-0.79,1.05,27.79,60.0-70.0
60.0,1463.0,-1.03,-1.08,10.09,-1.96,1.32,-0.49,27.81,60.0-70.0
60.0,1834.0,-0.91,0.8,10.1,1.83,-1.69,-0.2,27.81,60.0-70.0
60.0,1411.0,0.2,-0.57,9.66,-1.73,0.62,0.72,27.8,60.0-70.0
60.0,1333.0,-0.99,0.86,10.19,1.81,-2.05,-0.52,27.82,60.0-70.0
60.0,1265.0,0.27,-0.63,9.62,-1.62,1.03,0.37,27.8,60.0-70.0
60.0,1409.0,-1.68,-0.28,9.16,0.68,1.69,-1.6,27.8,60.0-70.0
60.0,2103.0,0.87,0.27,10.11,-1.07,-1.29,1.04,27.79,60.0-70.0
60.0,1791.0,-1.73,-0.21,9.13,0.73,1.75,-1.08,27.81,60.0-70.0
60.0,2469.0,0.78,0.22,10.18,-1.23,-1.34,1.51,27.79,60.0-70.0
60.0,1454.0,-1.06,-1.06,9.65,-1.3,2.65,-0.79,27.81,60.0-70.0
60.0,2219.0,0.22,0.76,9.76,0.5,-1.88,1.13,27.81,60.0-70.0
60.0,2011.0,-1.1,-1.02,9.51,-1.21,3.1,-1.27,27.8,60.0-70.0
60.0,2352.0,0.2,0.76,9.79,0.44,-2.05,0.85,27.82,60.0-70.0
60.0,803.0,0.32,-1.01,10.13,-1.97,1.17,-0.03,27.82,60.0-70.0
60.0,2074.0,-1.05,1.23,9.48,2.13,-1.35,0.06,27.82,60.0-70.0
60.0,895.0,0.38,-1.07,10.27,-1.91,0.92,-0.14,27.8,60.0-70.0
60.0,1321.0,-0.94,1.23,9.36,2.34,-0.95,0.43,27.82,60.0-70.0
60.0,933.0,0.5,0.15,10.24,-1.44,-1.37,1.42,27.82,60.0-70.0
60.0,1933.0,-1.09,0.1,9.45,1.44,0.04,-0.66,27.82,60.0-70.0
60.0,1798.0,0.38,0.12,10.07,-1.49,-1.11,1.53,27.82,60.0-70.0
60.0,911.0,-0.9,0.22,9.73,1.44,-0.19,-0.64,27.82,60.0-70.0
60.0,1480.0,0.03,0.54,9.79,-0.36,-2.01,1.13,27.81,60.0-70.0
60.0,1486.0,-1.12,-0.76,9.37,-0.34,3.09,-1.69,27.8,60.0-70.0
60.0,2114.0,0.23,0.46,9.75,-0.43,-1.88,0.78,27.82,60.0-70.0
60.0,1491.0,-1.28,-0.59,9.35,-0.11,3.0,-1.68,27.8,60.0-70.0
60.0,2038.0,-0.08,1.1,9.21,1.99,-0.56,0.35,27.81,60.0-70.0
60.0,1294.0,-0.61,-1.14,10.2,-2.13,1.18,-0.55,27.8,60.0-70.0
60.0,1415.0,0.04,1.05,9.23,1.84,-0.63,0.82,27.8,60.0-70.0
60.0,2113.0,-0.81,-1.13,10.06,-1.97,1.2,-0.41,27.79,60.0-70.0
60.0,1305.0,-0.89,0.76,10.11,1.78,-1.49,-0.02,27.8,60.0-70.0
60.0,889.0,0.02,-0.41,9.58,-1.73,0.69,0.99,27.81,60.0-70.0
60.0,937.0,-0.89,0.79,10.11,1.75,-1.72,-0.27,27.81,60.0-70.0
60.0,1223.0,0.2,-0.56,9.68,-1.67,0.82,0.55,27.82,60.0-70.0
60.0,1273.0,-0.13,0.03,9.79,-0.57,0.47,0.98,27.42,60.0-70.0
60.0,1647.0,-0.74,-0.19,9.68,-0.14,0.63,-0.23,27.4,60.0-70.0
60.0,1509.0,-0.86,0.3,9.5,0.73,-0.04,0.06,27.4,60.0-70.0
60.0,1358.0,0.03,0.34,9.81,-0.1,-1.11,1.97,27.41,60.0-70.0
60.0,1669.0,-0.01,-0.19,10.02,-0.8,-0.08,1.83,27.42,60.0-70.0
60.0,1235.0,-0.84,0.02,9.84,0.06,-0.3,0.11,27.4,60.0-70.0
60.0,1627.0,-0.46,0.23,9.78,0.35,-0.94,-0.24,27.41,60.0-70.0
60.0,1898.0,-0.05,-0.46,9.84,-1.1,-0.1,-0.32,27.38,60.0-70.0
60.0,2176.0,-0.65,-0.35,9.62,-0.22,1.09,-1.92,27.4,60.0-70.0
60.0,2109.0,-0.37,0.38,9.47,1.08,-0.04,-1.48,27.42,60.0-70.0
60.0,2146.0,0.03,0.2,10.07,-0.19,-1.03,0.17,27.4,60.0-70.0
60.0,1647.0,-0.52,-0.07,9.94,-0.01,0.28,0.11,27.4,60.0-70.0
60.0,1957.0,-0.55,0.43,9.89,0.82,-1.46,0.58,27.41,60.0-70.0
60.0,2465.0,0.18,-0.21,10.16,-0.92,-1.17,2.41,27.42,60.0-70.0
60.0,1375.0,-0.35,-0.1,9.82,-0.19,0.71,1.54,27.42,60.0-70.0
60.0,1495.0,-0.59,0.27,9.72,0.06,-0.98,0.03,27.42,60.0-70.0
60.0,1326.0,0.23,-0.36,10.03,-1.18,-0.85,0.61,27.4,60.0-70.0
60.0,2558.0,-0.67,-0.01,9.66,0.97,1.09,-1.71,27.41,60.0-70.0
60.0,587.0,-0.46,0.25,9.8,0.15,-1.4,-1.8,27.4,60.0-70.0
60.0,1896.0,-0.09,-0.89,10.21,-1.81,-0.73,-0.85,27.39,60.0-70.0
60.0,1925.0,-0.57,-0.14,9.71,0.77,0.53,-1.57,27.4,60.0-70.0
60.0,2154.0,0.16,0.52,9.84,0.13,-0.53,1.51,27.41,60.0-70.0
60.0,1275.0,-0.63,-0.72,10.0,-1.81,0.62,0.93,27.39,60.0-70.0
60.0,1266.0,-1.21,0.71,9.24,0.8,0.69,0.69,27.39,60.0-70.0
60.0,2598.0,-0.42,0.13,9.48,-0.75,0.5,2.14,27.42,60.0-70.0
60.0,2759.0,-0.76,-0.24,9.69,0.76,0.4,-0.53,27.42,60.0-70.0
60.0,1690.0,0.12,0.66,9.94,0.54,-1.99,-0.02,27.4,60.0-70.0
60.0,586.0,-0.53,-1.04,10.29,-1.82,-0.94,-1.07,27.41,60.0-70.0
60.0,1771.0,-0.87,0.6,9.63,0.93,-0.45,-1.89,27.42,60.0-70.0
60.0,1717.0,-0.59,-0.14,9.21,-1.26,1.75,-0.32,27.41,60.0-70.0
60.0,1977.0,-0.87,-0.34,9.45,0.28,2.02,-0.52,27.41,60.0-70.0
60.0,1682.0,0.47,0.75,10.18,0.41,-2.66,1.17,27.42,60.0-70.0
60.0,1179.0,-1.05,-0.85,9.96,-1.44,0.65,0.61,27.4,60.0-70.0
60.0,840.0,-0.2,1.02,9.39,1.47,-0.8,1.48,27.42,60.0-70.0
60.0,1790.0,0.27,0.21,10.07,-0.98,-0.05,1.79,27.41,60.0-70.0
60.0,2016.0,-1.06,-0.36,9.3,0.59,1.08,-0.56,27.41,60.0-70.0
60.0,2079.0,0.74,0.88,9.87,0.42,-0.82,0.63,27.42,60.0-70.0
60.0,850.0,-1.1,-0.92,10.14,-1.84,0.75,-1.27,27.41,60.0-70.0
60.0,1135.0,-0.61,1.01,9.47,1.73,-1.29,-1.05,27.41,60.0-70.0
60.0,617.0,0.03,-0.78,9.97,-1.78,1.61,-0.87,27.43,60.0-70.0
60.0,2288.0,-1.42,0.27,9.93,1.08,-1.93,-0.99,27.41,60.0-70.0
60.0,2251.0,0.81,0.85,9.74,0.3,-0.95,1.75,27.41,60.0-70.0
60.0,1990.0,-1.49,-0.32,9.41,0.13,3.2,0.35,27.4,60.0-70.0
60.0,750.0,0.69,0.93,10.32,0.25,-3.44,2.55,27.42,60.0-70.0
60.0,910.0,-1.11,-0.43,9.72,-0.48,3.01,0.08,27.4,60.0-70.0
60.0,1535.0,-1.75,0.77,9.61,1.52,-1.78,-0.4,27.42,60.0-70.0
60.0,1109.0,0.36,-0.61,9.69,-1.74,0.45,-0.14,27.42,60.0-70.0
60.0,1808.0,-1.44,0.06,9.69,0.68,-0.56,-2.3,27.41,60.0-70.0
60.0,2384.0,0.53,-0.36,9.67,-1.59,0.16,-0.17,27.39,60.0-70.0
60.0,1691.0,-1.12,-0.16,9.6,0.38,3.03,-1.31,27.42,60.0-70.0
60.0,1648.0,0.27,0.72,10.43,-0.08,-3.9,1.33,27.41,60.0-70.0
60.0,875.0,-0.76,-0.44,9.9,-0.43,2.05,0.03,27.42,60.0-70.0
60.0,1202.0,0.27,0.7,10.41,0.35,-3.91,2.06,27.42,60.0-70.0
60.0,1280.0,0.11,-0.83,9.69,-2.05,0.91,1.11,27.43,60.0-70.0
60.0,1219.0,-1.46,0.6,9.71,0.97,-0.95,-0.18,27.41,60.0-70.0
60.0,1200.0,0.11,-0.66,9.48,-1.87,1.09,0.44,27.43,60.0-70.0
60.0,1998.0,-1.03,0.15,9.84,0.8,-0.51,-1.69,27.42,60.0-70.0
60.0,1553.0,0.46,0.69,10.1,-0.11,-2.17,0.52,27.41,60.0-70.0
60.0,1802.0,-1.17,-0.19,9.58,0.57,1.9,-1.57,27.4,60.0-70.0
60.0,1291.0,0.32,0.72,10.26,-0.08,-3.36,0.9,27.41,60.0-70.0
60.0,880.0,-0.9,-0.42,9.78,-0.02,1.98,-0.58,27.41,60.0-70.0
60.0,1455.0,-0.98,1.21,9.13,1.92,-0.63,0.76,27.42,60.0-70.0
60.0,538.0,-0.12,-0.92,10.08,-2.22,1.03,0.75,27.44,60.0-70.0
60.0,1694.0,-1.27,1.15,9.27,1.64,-0.85,0.79,27.42,60.0-70.0
60.0,562.0,0.0,-0.86,9.91,-2.13,1.08,0.37,27.42,60.0-70.0
60.0,962.0,-1.44,-0.31,9.09,1.05,2.05,-1.24,27.44,60.0-70.0
60.0,1897.0,0.8,0.33,9.98,-0.63,-0.42,0.53,27.44,60.0-70.0
60.0,1763.0,-1.71,-0.22,9.06,1.22,2.31,-2.0,27.42,60.0-70.0
60.0,1810.0,0.67,0.43,9.94,-0.4,-0.89,0.53,27.4,60.0-70.0
60.0,1099.0,-0.98,-0.88,9.93,-1.0,1.72,-1.11,27.42,60.0-70.0
60.0,1136.0,0.46,0.99,9.61,1.54,-2.13,1.1,27.42,60.0-70.0
60.0,1378.0,-0.96,-0.91,10.05,-1.26,1.33,0.14,27.43,60.0-70.0
60.0,1232.0,0.39,1.07,9.44,1.6,-1.61,1.65,27.42,60.0-70.0
60.0,1165.0,0.21,-0.66,9.62,-2.13,0.83,1.33,27.41,60.0-70.0
60.0,880.0,-0.94,0.34,9.89,0.91,-1.08,-0.5,27.43,60.0-70.0
60.0,990.0,0.21,-0.53,9.7,-2.03,0.72,0.37,27.43,60.0-70.0
60.0,959.0,-0.88,0.21,9.9,1.08,-0.86,-1.63,27.41,60.0-70.0
60.0,948.0,0.23,0.61,10.04,-0.34,-2.1,0.44,27.42,60.0-70.0
60.0,1778.0,-1.35,-0.4,9.47,0.28,2.25,-1.72,27.41,60.0-70.0
60.0,1100.0,0.18,0.57,10.02,-0.23,-2.43,1.05,27.42,60.0-70.0
60.0,853.0,-1.22,-0.45,9.53,0.04,2.17,-0.6,27.41,60.0-70.0
60.0,1348.0,-0.39,1.23,9.19,2.19,-0.37,1.25,27.41,60.0-70.0
60.0,1072.0,-0.54,-1.0,10.15,-1.94,1.09,0.43,27.42,60.0-70.0
60.0,1273.0,-0.56,1.29,9.11,2.21,-0.18,0.98,27.4,60.0-70.0
60.0,905.0,-0.32,-0.95,10.14,-1.94,1.11,-0.29,27.42,60.0-70.0
60.0,1115.0,-0.8,0.01,9.65,1.29,0.13,-1.33,27.43,60.0-70.0
60.0,976.0,0.41,-0.07,9.95,-1.44,-0.31,0.32,27.41,60.0-70.0
60.0,1022.0,-0.92,-0.03,9.52,1.34,0.21,-1.77,27.42,60.0-70.0
60.0,1453.0,0.53,-0.08,10.07,-1.45,-0.53,0.66,27.41,60.0-70.0
60.0,1323.0,-1.02,-0.63,9.7,-0.26,2.2,-1.16,27.4,60.0-70.0
60.0,1470.0,0.04,0.7,10.23,-0.02,-3.35,1.74,27.4,60.0-70.0
60.0,1054.0,-0.98,-0.63,9.75,-0.34,2.13,-0.21,27.4,60.0-70.0
60.0,1598.0,0.03,0.7,10.16,0.03,-3.21,2.03,27.41,60.0-70.0
60.0,1503.0,-0.01,-1.05,10.09,-2.0,1.26,0.27,27.42,60.0-70.0
60.0,1487.0,-0.93,1.28,9.16,2.16,-0.5,0.26,27.41,60.0-70.0
60.0,1023.0,0.02,-1.04,10.09,-2.0,1.32,-0.75,27.42,60.0-70.0
60.0,348.0,-1.0,1.12,9.23,1.96,-0.57,-0.66,27.39,60.0-70.0
60.0,977.0,0.68,0.12,10.23,-1.23,-1.05,0.6,27.42,60.0-70.0
60.0,1327.0,-1.04,-0.09,9.54,1.41,0.65,-1.34,27.4,60.0-70.0
60.0,786.0,0.64,0.14,10.3,-1.27,-1.06,1.39,27.42,60.0-70.0
60.0,973.0,-1.19,-0.01,9.4,1.47,0.79,-0.35,27.41,60.0-70.0
60.0,1776.0,0.09,0.64,10.03,0.03,-2.98,1.8,27.41,60.0-70.0
60.0,1191.0,-0.93,-0.75,9.46,-0.63,2.75,-0.47,27.42,60.0-70.0
60.0,657.0,0.04,0.73,9.91,0.24,-2.72,1.45,27.41,60.0-70.0
60.0,894.0,-0.92,-0.77,9.56,-0.62,2.62,-1.34,27.39,60.0-70.0
60.0,1387.0,-1.0,1.13,9.32,2.02,-0.71,-0.38,27.41,60.0-70.0
60.0,178.0,0.16,-1.07,10.09,-1.96,1.49,-0.87,27.42,60.0-70.0
60.0,686.0,-1.15,1.09,9.34,2.01,-0.71,-0.6,27.42,60.0-70.0
60.0,1307.0,0.18,-1.11,10.02,-2.14,1.53,-0.38,27.41,60.0-70.0
60.0,1324.0,-1.33,0.01,9.44,1.31,0.56,-0.79,27.42,60.0-70.0
60.0,1111.0,0.65,0.23,10.39,-1.39,-1.56,1.91,27.42,60.0-70.0
60.0,1315.0,-1.3,0.01,9.44,1.35,0.6,-0.08,27.4,60.0-70.0
60.0,1954.0,0.69,0.27,10.4,-1.2,-1.63,1.98,27.41,60.0-70.0
60.0,1743.0,-0.98,-0.89,9.51,-0.89,2.68,-0.93,27.4,60.0-70.0
60.0,1331.0,0.08,0.74,9.85,0.35,-2.4,0.87,27.4,60.0-70.0
60.0,1698.0,-0.98,-0.82,9.52,-0.66,2.89,-1.79,27.42,60.0-70.0
60.0,1877.0,0.05,0.77,9.85,0.44,-2.5,0.35,27.4,60.0-70.0
60.0,1328.0,0.29,-1.09,10.02,-1.84,1.53,-0.63,27.41,60.0-70.0
60.0,842.0,-1.1,1.12,9.39,2.12,-0.89,-0.08,27.41,60.0-70.0
60.0,235.0,0.32,-1.1,9.96,-2.0,1.58,0.18,27.41,60.0-70.0
60.0,767.0,-1.1,1.09,9.39,1.84,-0.82,0.75,27.41,60.0-70.0
60.0,1447.0,0.75,0.24,10.43,-1.36,-1.66,2.04,27.41,60.0-70.0
60.0,1451.0,-1.31,-0.06,9.52,1.11,0.47,-0.4,27.42,60.0-70.0
60.0,1405.0,0.68,0.26,10.43,-1.33,-1.63,1.43,27.42,60.0-70.0
60.0,1685.0,-1.4,-0.02,9.41,1.35,0.62,-1.25,27.42,60.0-70.0
60.0,1997.0,0.05,0.79,9.89,0.35,-2.39,0.52,27.43,60.0-70.0
60.0,1117.0,-1.1,-0.83,9.5,-0.72,2.75,-1.86,27.44,60.0-70.0
60.0,1979.0,-0.03,0.76,9.88,0.45,-2.63,0.67,27.42,60.0-70.0
60.0,2601.0,-1.15,-0.81,9.47,-0.71,3.0,-1.24,27.42,60.0-70.0
60.0,2055.0,-0.99,1.07,9.46,2.07,-0.94,0.44,27.41,60.0-70.0
60.0,939.0,0.37,-1.15,9.99,-2.13,1.61,0.49,27.41,60.0-70.0
60.0,1533.0,-1.05,1.13,9.34,1.89,-0.65,0.75,27.4,60.0-70.0
60.0,780.0,0.37,-1.07,9.91,-2.1,1.88,0.27,27.41,60.0-70.0
60.0,1429.0,-1.3,-0.04,9.49,1.15,0.54,-0.82,27.42,60.0-70.0
60.0,1616.0,0.72,0.18,10.37,-1.38,-1.41,0.92,27.41,60.0-70.0
60.0,1581.0,-1.28,-0.09,9.39,1.31,0.65,-1.59,27.41,60.0-70.0
60.0,1709.0,0.72,0.09,10.4,-1.36,-1.41,0.63,27.41,60.0-70.0
60.0,1787.0,-1.06,-0.74,9.58,-0.48,2.68,-1.48,27.43,60.0-70.0
60.0,1749.0,0.0,0.83,9.92,0.59,-2.75,1.27,27.42,60.0-70.0
60.0,1576.0,-1.03,-0.76,9.57,-0.58,2.6,-0.64,27.41,60.0-70.0
60.0,2054.0,0.03,0.89,9.94,0.45,-2.74,1.88,27.41,60.0-70.0
60.0,1063.0,0.29,-1.04,10.05,-1.96,1.27,0.6,27.41,60.0-70.0
60.0,753.0,-0.95,1.15,9.46,2.02,-1.14,0.52,27.42,60.0-70.0
60.0,894.0,0.3,-1.06,10.09,-2.0,1.18,-0.23,27.41,60.0-70.0
60.0,1057.0,-1.1,1.17,9.31,2.04,-0.94,-0.27,27.39,60.0-70.0
60.0,1936.0,0.7,0.09,10.26,-1.5,-1.09,0.55,27.42,60.0-70.0
60.0,2259.0,-1.23,-0.19,9.3,1.12,0.98,-1.65,27.4,60.0-70.0
60.0,2410.0,0.73,0.1,10.28,-1.52,-0.98,0.93,27.42,60.0-70.0
60.0,1842.0,-1.24,-0.22,9.27,1.06,1.06,-0.92,27.4,60.0-70.0
60.0,1647.0,-0.05,0.83,9.98,0.48,-2.82,1.68,27.4,60.0-70.0
60.0,1839.0,-1.05,-0.67,9.59,-0.48,2.59,-0.47,27.41,60.0-70.0
60.0,2553.0,-0.02,0.92,10.02,0.53,-2.82,1.8,27.41,60.0-70.0
60.0,1932.0,-1.04,-0.58,9.57,-0.37,2.77,-0.87,27.41,60.0-70.0
60.0,1425.0,-0.99,1.18,9.34,2.16,-1.02,-0.0,27.42,60.0-70.0
60.0,1363.0,0.27,-1.02,9.98,-1.88,1.47,-0.7,27.41,60.0-70.0
60.0,1589.0,-1.0,1.16,9.35,2.1,-0.85,-0.5,27.4,60.0-70.0
60.0,1447.0,0.26,-1.09,10.09,-2.08,1.27,-0.64,27.42,60.0-70.0
60.0,2448.0,-1.32,-0.19,9.28,1.0,1.06,-1.31,27.42,60.0-70.0
60.0,1206.0,0.7,0.04,10.25,-1.62,-0.98,1.42,27.42,60.0-70.0
60.0,2030.0,-1.28,-0.21,9.29,1.05,1.08,-0.55,27.42,60.0-70.0
60.0,2125.0,0.72,0.06,10.27,-1.47,-0.86,1.83,27.42,60.0-70.0
60.0,942.0,-1.0,-0.61,9.7,-0.46,2.2,-0.4,27.41,60.0-70.0
60.0,1712.0,-0.0,0.99,10.09,0.68,-3.35,1.5,27.41,60.0-70.0
60.0,1251.0,-1.01,-0.55,9.72,-0.22,2.02,-1.13,27.41,60.0-70.0
60.0,1690.0,0.03,1.02,10.14,0.83,-3.36,0.98,27.42,60.0-70.0
60.0,1518.0,0.22,-1.1,9.86,-2.14,1.61,-0.84,27.42,60.0-70.0
60.0,1157.0,-1.11,1.06,9.26,1.86,-0.86,-0.49,27.41,60.0-70.0
60.0,1482.0,0.18,-1.1,9.9,-2.31,1.46,-0.37,27.43,60.0-70.0
60.0,829.0,-1.06,1.02,9.22,1.61,-0.97,0.27,27.43,60.0-70.0
60.0,1290.0,0.62,0.08,10.22,-1.59,-0.71,1.66,27.43,60.0-70.0
60.0,1479.0,-1.41,-0.21,9.23,1.02,1.33,-0.5,27.42,60.0-70.0
60.0,2318.0,0.67,0.01,10.26,-1.58,-0.86,1.48,27.4,60.0-70.0
60.0,1889.0,-1.33,-0.32,9.28,0.97,1.49,-1.3,27.41,60.0-70.0
60.0,1968.0,0.16,1.1,10.22,0.9,-3.49,1.28,27.41,60.0-70.0
60.0,2186.0,-0.96,-0.58,9.89,-0.17,1.66,-1.22,27.41,60.0-70.0
60.0,2000.0,0.14,1.08,10.18,1.0,-3.56,1.08,27.42,60.0-70.0
60.0,1207.0,-1.03,-0.45,9.83,-0.08,1.93,-0.84,27.42,60.0-70.0
60.0,1881.0,-1.11,1.08,9.32,1.8,-1.05,-0.11,27.41,60.0-70.0
60.0,1649.0,0.34,-1.05,9.8,-2.26,1.3,0.12,27.4,60.0-70.0
60.0,1566.0,-1.24,1.08,9.33,1.66,-1.15,0.46,27.45,60.0-70.0
60.0,1280.0,0.27,-1.06,9.79,-2.4,1.24,0.21,27.42,60.0-70.0
60.0,1165.0,-1.52,-0.36,9.06,0.77,2.28,-1.01,27.4,60.0-70.0
60.0,1655.0,0.73,-0.07,10.11,-1.55,-0.1,0.89,27.39,60.0-70.0
60.0,2086.0,-1.42,-0.43,9.09,0.93,2.28,-1.83,27.42,60.0-70.0
60.0,2128.0,0.64,0.01,10.08,-1.35,-0.07,0.38,27.42,60.0-70.0
60.0,1002.0,-0.91,-0.62,9.89,-0.26,1.62,-1.13,27.4,60.0-70.0
60.0,2297.0,0.39,1.04,10.14,1.15,-3.52,1.27,27.39,60.0-70.0
60.0,2060.0,-0.81,-0.61,9.84,-0.28,1.64,-0.55,27.42,60.0-70.0
60.0,1854.0,0.39,1.11,10.13,1.17,-3.59,1.98,27.42,60.0-70.0
60.0,2160.0,0.12,-0.98,9.79,-2.35,1.14,0.38,27.4,60.0-70.0
60.0,1239.0,-1.36,1.06,9.52,1.55,-1.44,0.31,27.43,60.0-70.0
60.0,912.0,0.19,-0.92,9.78,-2.37,1.09,0.14,27.42,60.0-70.0
60.0,1827.0,-1.29,1.03,9.6,1.46,-1.75,-0.38,27.41,60.0-70.0
60.0,1600.0,0.73,0.09,10.02,-1.26,-0.22,0.61,27.41,60.0-70.0
60.0,1359.0,-1.64,-0.33,9.01,0.83,2.52,-1.85,27.41,60.0-70.0
60.0,1712.0,0.64,0.09,10.0,-1.1,-0.08,0.66,27.42,60.0-70.0
60.0,1222.0,-1.66,-0.38,8.95,0.91,2.74,-1.43,27.39,60.0-70.0
60.0,1109.0,0.55,1.04,10.17,1.29,-3.61,1.65,27.43,60.0-70.0
60.0,1754.0,-0.87,-0.71,10.0,-0.55,1.18,-0.15,27.41,60.0-70.0
60.0,1823.0,0.51,1.14,10.14,1.37,-3.5,1.94,27.42,60.0-70.0
60.0,1139.0,-0.93,-0.66,9.94,-0.6,1.33,-0.27,27.44,60.0-70.0
60.0,1170.0,-1.26,0.95,9.73,1.47,-1.78,-0.11,27.41,60.0-70.0
60.0,708.0,0.25,-0.91,9.73,-2.32,1.08,-0.2,27.41,60.0-70.0
60.0,682.0,-1.38,0.94,9.73,1.25,-1.69,-0.76,27.39,60.0-70.0
60.0,1273.0,0.18,-0.93,9.64,-2.37,1.04,-0.46,27.41,60.0-70.0
60.0,1367.0,-1.73,-0.36,9.01,0.79,2.68,-1.72,27.44,60.0-70.0
60.0,2121.0,0.77,0.15,9.89,-0.98,-0.19,0.99,27.4,60.0-70.0
60.0,1994.0,-1.71,-0.35,8.97,0.77,2.78,-1.05,27.42,60.0-70.0
60.0,1443.0,0.66,0.2,9.86,-0.8,-0.16,1.68,27.4,60.0-70.0
60.0,1535.0,-0.88,-0.74,10.04,-0.75,1.12,-0.02,27.4,60.0-70.0
60.0,1090.0,0.65,1.2,10.13,1.7,-3.35,1.82,27.4,60.0-70.0
60.0,661.0,-0.84,-0.63,10.15,-0.65,0.77,-0.43,27.4,60.0-70.0
60.0,471.0,-1.37,0.83,9.74,1.2,-1.61,-0.78,27.4,60.0-70.0
60.0,773.0,0.11,-0.84,9.61,-2.26,1.21,-0.32,27.41,60.0-70.0
60.0,742.0,-1.34,0.8,9.79,1.14,-1.76,-1.02,27.42,60.0-70.0
60.0,730.0,0.06,-0.83,9.61,-2.37,1.11,-0.12,27.42,60.0-70.0
60.0,1219.0,-1.7,-0.42,9.02,0.53,2.91,-1.5,27.43,60.0-70.0
60.0,1374.0,0.69,0.19,9.85,-0.95,-0.08,1.36,27.43,60.0-70.0
60.0,1535.0,-1.78,-0.38,9.0,0.48,2.83,-0.85,27.4,60.0-70.0
60.0,1579.0,0.69,0.2,9.88,-0.81,-0.24,1.63,27.4,60.0-70.0
60.0,944.0,-0.96,-0.72,10.19,-0.95,0.92,-0.15,27.42,60.0-70.0
60.0,1508.0,0.52,1.24,10.0,1.92,-2.88,1.43,27.42,60.0-70.0
60.0,1126.0,-1.04,-0.63,10.24,-0.83,0.92,-0.75,27.39,60.0-70.0
60.0,534.0,0.57,1.26,10.04,1.99,-3.01,0.84,27.37,60.0-70.0
60.0,0.0,0.13,-0.79,9.48,-2.17,1.35,-0.34,27.39,60.0-70.0
60.0,915.0,-1.25,0.66,9.81,1.06,-1.58,-0.92,27.4,60.0-70.0
60.0,741.0,0.08,-0.81,9.48,-2.4,1.2,0.21,27.39,60.0-70.0
60.0,501.0,-1.21,0.65,9.82,0.97,-1.53,-0.31,27.42,60.0-70.0
60.0,0.0,0.64,0.27,9.83,-0.74,-0.33,1.59,27.39,60.0-70.0
60.0,1616.0,-1.65,-0.4,9.03,0.54,2.92,-0.89,27.41,60.0-70.0
60.0,1933.0,0.67,0.31,9.85,-0.63,-0.3,1.37,27.4,60.0-70.0
60.0,635.0,-1.68,-0.39,9.08,0.61,3.01,-1.37,27.42,60.0-70.0
60.0,1204.0,0.66,1.2,9.9,1.86,-2.79,0.92,27.4,60.0-70.0
60.0,1101.0,-0.9,-0.78,10.33,-1.04,0.51,-0.89,27.43,60.0-70.0
60.0,688.0,0.56,1.25,9.9,2.05,-2.86,0.92,27.42,60.0-70.0
60.0,621.0,-0.93,-0.77,10.34,-1.07,0.51,-0.56,27.42,60.0-70.0
60.0,1114.0,-1.23,0.59,9.89,1.05,-1.55,-0.6,27.41,60.0-70.0
60.0,667.0,0.02,-0.77,9.46,-2.37,1.21,0.61,27.41,60.0-70.0
60.0,1218.0,-1.35,0.65,9.8,0.94,-1.43,-0.24,27.41,60.0-70.0
60.0,1172.0,0.06,-0.71,9.48,-2.35,1.24,0.64,27.42,60.0-70.0
60.0,1913.0,-1.6,-0.36,9.07,0.61,3.09,-1.11,27.39,60.0-70.0
60.0,1335.0,0.69,0.33,9.83,-0.63,-0.51,1.08,27.43,60.0-70.0
60.0,1887.0,-1.52,-0.37,9.09,0.67,2.95,-1.65,27.41,60.0-70.0
60.0,2192.0,0.68,0.31,9.86,-0.52,-0.53,0.75,27.41,60.0-70.0
60.0,1079.0,-0.99,-0.77,10.35,-1.16,0.37,-0.81,27.39,60.0-70.0
60.0,1769.0,0.53,1.24,9.83,1.99,-2.6,1.14,27.39,60.0-70.0
60.0,906.0,-1.0,-0.76,10.42,-1.09,0.27,-0.17,27.42,60.0-70.0
60.0,261.0,0.49,1.31,9.9,2.1,-2.83,1.74,27.41,60.0-70.0
60.0,533.0,0.02,-0.76,9.44,-2.29,1.37,0.64,27.42,60.0-70.0
60.0,0.0,-1.21,0.59,9.75,1.05,-1.2,-0.47,27.41,60.0-70.0
60.0,1139.0,0.06,-0.71,9.39,-2.34,1.41,0.27,27.42,60.0-70.0
60.0,739.0,-1.11,0.58,9.77,1.11,-1.06,-1.07,27.4,60.0-70.0
60.0,617.0,0.76,0.27,10.02,-0.69,-0.68,0.78,27.42,60.0-70.0
60.0,1335.0,-1.5,-0.53,9.17,0.45,2.78,-1.69,27.41,60.0-70.0
60.0,1338.0,0.79,0.21,9.95,-0.63,-0.69,0.92,27.42,60.0-70.0
60.0,965.0,-1.4,-0.53,9.21,0.59,2.91,-1.24,27.4,60.0-70.0
60.0,623.0,0.39,1.26,9.93,1.9,-2.69,1.39,27.4,60.0-70.0
60.0,588.0,-1.1,-0.72,10.32,-1.24,0.4,-0.02,27.41,60.0-70.0
60.0,496.0,0.39,1.31,9.91,1.98,-2.79,1.63,27.4,60.0-70.0
60.0,502.0,-1.12,-0.71,10.4,-1.23,0.25,-0.17,27.41,60.0-70.0
60.0,607.0,-1.11,0.5,9.76,1.19,-0.83,-0.76,27.41,60.0-70.0
60.0,407.0,0.15,-0.78,9.35,-2.22,1.75,-0.06,27.4,60.0-70.0
60.0,149.0,-1.13,0.54,9.7,1.12,-0.63,-1.27,27.4,60.0-70.0
60.0,1221.0,0.12,-0.82,9.31,-2.28,1.82,-0.27,27.42,60.0-70.0
60.0,1392.0,-1.46,-0.4,9.29,0.62,2.52,-1.39,27.43,60.0-70.0
60.0,1126.0,0.85,0.27,10.08,-0.75,-0.94,1.36,27.4,60.0-70.0
60.0,979.0,-1.42,-0.41,9.35,0.48,2.36,-0.78,27.41,60.0-70.0
60.0,2441.0,0.84,0.24,10.14,-0.71,-1.4,1.77,27.39,60.0-70.0
60.0,863.0,-1.13,-0.71,10.31,-1.32,0.45,-0.09,27.42,60.0-70.0
60.0,1466.0,0.46,1.32,9.8,1.92,-2.66,1.43,27.4,60.0-70.0
60.0,1021.0,-1.18,-0.71,10.37,-1.16,0.24,-0.49,27.41,60.0-70.0
60.0,1354.0,0.38,1.29,9.83,1.9,-2.72,0.92,27.41,60.0-70.0
60.0,0.0,0.2,-0.85,9.34,-2.2,1.79,-0.24,27.41,60.0-70.0
