Speed,Voice,Acceleration X,Acceleration Y,Acceleration Z,Gyro X,Gyro Y,Gyro Z,Temperature,Speed_Range
60.0,1600.0,-0.52,-0.19,9.73,-0.42,1.06,-0.18,27.97,60.0-70.0
60.0,1984.0,-0.86,0.12,9.63,0.56,-0.02,-0.34,27.97,60.0-70.0
60.0,1611.0,-0.41,0.27,9.74,0.3,-1.05,0.79,27.99,60.0-70.0
60.0,1983.0,0.16,-0.17,9.97,-1.15,-0.65,2.64,27.98,60.0-70.0
60.0,1178.0,-0.55,-0.33,9.75,-0.91,0.69,1.86,27.97,60.0-70.0
60.0,1309.0,-0.69,0.35,9.62,0.73,-0.34,0.87,27.96,60.0-70.0
60.0,1782.0,-0.14,0.37,10.02,0.04,-1.46,0.73,27.98,60.0-70.0
60.0,817.0,-0.08,-0.31,9.95,-1.1,-0.01,-0.79,27.99,60.0-70.0
60.0,1015.0,-0.91,0.02,9.72,0.38,0.16,-3.04,27.98,60.0-70.0
60.0,1328.0,-0.03,0.36,9.86,0.57,-1.24,-1.62,27.98,60.0-70.0
60.0,1427.0,-0.04,-0.42,9.69,-0.92,0.83,-0.9,28.0,60.0-70.0
60.0,1571.0,-0.9,-0.39,9.47,-0.31,1.49,-1.04,27.98,60.0-70.0
60.0,1535.0,-0.22,0.25,9.49,0.27,-0.07,1.39,27.99,60.0-70.0
60.0,1392.0,-0.29,-0.37,9.8,-1.13,1.46,2.59,27.97,60.0-70.0
60.0,1469.0,-0.48,-0.2,9.84,-0.05,0.63,1.37,27.98,60.0-70.0
60.0,1041.0,-0.57,0.52,9.68,0.3,-1.09,1.25,27.98,60.0-70.0
60.0,1798.0,-0.19,-0.34,9.93,-0.77,0.91,0.12,27.97,60.0-70.0
60.0,1514.0,-0.96,0.5,9.33,0.77,1.12,-2.46,27.97,60.0-70.0
60.0,1282.0,-0.44,0.45,9.51,0.22,-0.57,-1.71,27.99,60.0-70.0
60.0,425.0,-0.37,-0.46,9.75,-0.4,1.58,-1.74,27.99,60.0-70.0
60.0,1021.0,-0.51,0.65,9.32,1.43,0.68,-1.24,27.99,60.0-70.0
60.0,1216.0,0.03,-0.14,9.85,-0.45,-0.04,1.68,27.98,60.0-70.0
60.0,1758.0,-0.37,-0.62,9.8,-0.58,0.45,1.25,27.98,60.0-70.0
60.0,503.0,-0.22,0.4,9.88,0.09,-2.14,2.0,27.97,60.0-70.0
60.0,769.0,-0.41,-0.69,10.18,-1.78,-0.6,1.88,27.96,60.0-70.0
60.0,1477.0,-0.8,0.87,9.59,1.14,0.05,0.23,27.97,60.0-70.0
60.0,1699.0,0.05,0.44,9.77,-0.37,-0.56,-0.08,27.98,60.0-70.0
60.0,624.0,-0.63,-0.51,9.44,-0.31,2.02,-1.92,27.97,60.0-70.0
60.0,1200.0,0.24,0.58,9.76,0.79,-1.4,-1.69,27.97,60.0-70.0
60.0,309.0,-0.87,-1.0,10.09,-1.67,0.11,-1.77,27.98,60.0-70.0
60.0,1227.0,-0.7,-0.3,9.74,0.68,-0.62,-1.56,27.98,60.0-70.0
60.0,1406.0,0.3,0.35,10.15,-0.46,-0.89,1.5,27.98,60.0-70.0
60.0,1502.0,-1.21,-0.56,9.63,-0.25,0.65,1.04,27.95,60.0-70.0
60.0,710.0,0.5,0.56,10.06,-0.19,-2.43,2.62,27.98,60.0-70.0
60.0,1034.0,-0.17,-0.76,9.8,-1.78,1.3,1.85,27.95,60.0-70.0
60.0,1081.0,-0.64,0.66,10.01,1.41,-1.96,0.15,27.98,60.0-70.0
60.0,667.0,0.13,0.1,9.62,-0.83,1.46,0.09,27.96,60.0-70.0
60.0,935.0,-0.95,-0.11,9.61,0.97,-0.45,-2.75,27.97,60.0-70.0
60.0,1168.0,0.41,0.64,10.02,0.21,-2.98,-1.05,27.97,60.0-70.0
60.0,1454.0,-1.42,-0.69,9.43,-0.8,3.14,-2.32,27.97,60.0-70.0
60.0,1493.0,0.48,0.74,9.74,1.14,-2.33,0.61,27.98,60.0-70.0
60.0,469.0,-1.09,-0.99,10.25,-2.14,1.43,0.47,28.01,60.0-70.0
60.0,1085.0,-1.15,-0.02,9.75,0.64,-0.65,0.67,27.97,60.0-70.0
60.0,1428.0,0.52,0.42,9.99,-0.87,-0.74,3.27,27.99,60.0-70.0
60.0,1413.0,-1.85,-0.29,9.42,0.3,0.68,-0.03,27.95,60.0-70.0
60.0,1487.0,1.14,0.44,10.37,-0.77,-2.22,1.3,27.97,60.0-70.0
60.0,1328.0,-1.04,-0.62,9.71,-1.0,2.89,-1.6,27.97,60.0-70.0
60.0,1642.0,0.14,1.0,9.33,1.67,-1.2,-0.92,27.96,60.0-70.0
60.0,1497.0,-0.7,-0.98,10.34,-1.88,0.89,-2.17,27.96,60.0-70.0
60.0,908.0,-0.47,1.04,9.14,1.9,-0.53,-0.6,27.98,60.0-70.0
60.0,827.0,0.16,0.15,9.76,-1.09,-0.45,1.1,27.98,60.0-70.0
60.0,1350.0,-1.23,-0.2,9.62,0.54,0.34,-0.15,27.95,60.0-70.0
60.0,933.0,0.26,0.24,10.07,-1.36,-1.2,2.99,27.97,60.0-70.0
60.0,1377.0,-1.4,-0.22,9.37,0.5,1.12,0.56,27.97,60.0-70.0
60.0,1431.0,0.04,0.82,9.76,0.57,-2.04,2.01,27.99,60.0-70.0
60.0,1274.0,-1.11,-0.78,9.8,-1.13,2.39,-1.01,27.97,60.0-70.0
60.0,1751.0,0.17,0.99,9.57,1.37,-1.73,-0.34,27.98,60.0-70.0
60.0,909.0,-1.14,-0.88,10.02,-1.38,1.72,-2.44,27.98,60.0-70.0
60.0,813.0,-1.04,0.58,9.99,1.44,-1.3,-2.35,27.99,60.0-70.0
60.0,1089.0,0.02,-0.3,9.4,-1.18,1.67,-0.09,27.98,60.0-70.0
60.0,1152.0,-0.95,0.4,9.88,1.25,-0.94,-0.32,27.97,60.0-70.0
60.0,1375.0,-0.01,-0.14,9.49,-1.5,0.94,2.35,27.98,60.0-70.0
60.0,2288.0,-1.32,-0.41,9.4,-0.02,2.31,0.47,27.98,60.0-70.0
60.0,1465.0,0.39,0.5,9.84,-0.45,-1.99,2.75,27.98,60.0-70.0
60.0,1195.0,-1.05,-0.48,9.41,-0.1,2.68,-0.63,27.99,60.0-70.0
60.0,2355.0,0.22,0.6,9.73,-0.05,-2.16,0.67,27.99,60.0-70.0
60.0,1246.0,-0.24,-1.04,10.32,-2.08,0.57,-1.43,27.97,60.0-70.0
60.0,1664.0,-0.46,1.08,9.18,2.18,-0.59,-1.33,27.98,60.0-70.0
60.0,1360.0,0.0,-1.12,10.3,-2.07,0.71,-1.59,28.0,60.0-70.0
60.0,1158.0,-0.74,1.02,9.17,2.1,-0.69,-0.09,27.96,60.0-70.0
60.0,1535.0,0.21,0.08,10.03,-1.53,-1.17,1.63,27.97,60.0-70.0
60.0,2037.0,-1.11,-0.07,9.5,1.0,0.53,0.24,27.94,60.0-70.0
60.0,738.0,0.37,0.17,10.15,-1.67,-1.29,2.93,27.97,60.0-70.0
60.0,1731.0,-1.23,0.04,9.44,1.08,0.62,0.2,27.97,60.0-70.0
60.0,1798.0,-0.11,0.85,9.72,0.22,-2.24,1.75,27.96,60.0-70.0
60.0,1662.0,-0.89,-0.66,9.65,-0.6,2.88,-1.79,27.97,60.0-70.0
60.0,2384.0,-0.11,0.8,9.72,0.44,-2.16,-0.26,27.96,60.0-70.0
60.0,2234.0,-1.01,-0.79,9.57,-0.58,3.1,-2.85,27.98,60.0-70.0
60.0,1968.0,-0.9,1.08,9.37,2.09,-1.02,-1.13,27.97,60.0-70.0
60.0,1680.0,0.41,-1.14,10.14,-1.93,1.12,-0.4,27.98,60.0-70.0
60.0,1140.0,-0.97,1.1,9.24,2.1,-0.73,0.93,27.96,60.0-70.0
60.0,1591.0,0.4,-1.1,10.19,-2.05,0.97,1.36,27.99,60.0-70.0
60.0,1094.0,-1.23,-0.05,9.4,1.09,0.95,0.44,27.97,60.0-70.0
60.0,1797.0,0.52,0.16,10.25,-1.67,-1.66,2.38,27.97,60.0-70.0
60.0,1968.0,-1.23,0.03,9.45,1.17,0.71,-0.89,27.97,60.0-70.0
60.0,2027.0,0.52,0.17,10.21,-1.62,-1.44,0.34,27.95,60.0-70.0
60.0,1957.0,-0.94,-0.72,9.66,-0.52,3.29,-2.64,27.97,60.0-70.0
60.0,2649.0,-0.22,0.79,9.69,0.41,-2.13,-0.21,27.97,60.0-70.0
60.0,2288.0,-0.94,-0.83,9.65,-0.6,2.98,-2.24,27.99,60.0-70.0
60.0,1661.0,-0.21,0.7,9.69,0.18,-2.27,1.22,27.98,60.0-70.0
60.0,1889.0,0.32,-1.17,10.31,-2.2,0.8,0.47,27.98,60.0-70.0
60.0,1584.0,-0.79,1.11,9.19,2.01,-0.65,1.68,27.98,60.0-70.0
60.0,495.0,0.19,-1.1,10.32,-2.26,0.65,1.22,27.96,60.0-70.0
60.0,935.0,-0.63,1.19,9.23,2.21,-0.56,1.14,27.97,60.0-70.0
60.0,923.0,0.13,0.17,9.94,-1.61,-1.27,1.4,27.97,60.0-70.0
60.0,1904.0,-1.01,0.21,9.59,1.46,0.24,-1.75,27.98,60.0-70.0
60.0,991.0,0.23,0.03,9.96,-1.59,-1.15,-0.09,27.97,60.0-70.0
60.0,2103.0,-0.97,0.16,9.67,1.55,0.04,-2.09,27.99,60.0-70.0
60.0,1521.0,-0.02,0.63,9.68,0.06,-1.92,0.47,28.01,60.0-70.0
60.0,966.0,-0.93,-0.68,9.53,-0.39,2.78,-1.3,27.98,60.0-70.0
60.0,2070.0,0.06,0.52,9.65,-0.19,-1.88,2.21,27.96,60.0-70.0
60.0,1319.0,-1.08,-0.62,9.47,-0.43,2.65,-0.05,27.96,60.0-70.0
60.0,1189.0,-0.08,1.14,9.3,1.95,-0.74,1.86,27.98,60.0-70.0
60.0,1615.0,-0.49,-1.03,10.25,-2.13,0.8,0.23,27.98,60.0-70.0
60.0,589.0,0.15,1.12,9.31,2.09,-0.82,0.41,27.98,60.0-70.0
60.0,309.0,-0.68,-1.08,10.23,-2.14,0.71,-1.53,27.98,60.0-70.0
60.0,858.0,-0.93,0.47,10.0,1.69,-0.73,-2.01,27.96,60.0-70.0
60.0,1326.0,-0.08,-0.28,9.61,-1.55,0.45,-0.26,27.97,60.0-70.0
60.0,1225.0,-0.89,0.49,10.06,1.58,-1.0,-1.13,27.98,60.0-70.0
60.0,1103.0,-0.08,-0.43,9.5,-1.82,0.77,1.19,27.98,60.0-70.0
60.0,1296.0,-1.44,-0.44,9.38,0.04,2.11,-0.46,27.97,60.0-70.0
60.0,1584.0,0.73,0.32,10.07,-0.81,-1.49,2.47,27.98,60.0-70.0
60.0,1424.0,-1.52,-0.33,9.28,0.19,2.16,-0.32,27.99,60.0-70.0
60.0,1666.0,0.86,0.32,10.1,-0.75,-1.47,1.69,27.97,60.0-70.0
60.0,759.0,-1.32,-0.99,10.11,-1.71,1.55,-0.98,27.97,60.0-70.0
60.0,954.0,0.57,1.07,9.59,1.63,-1.66,0.02,27.97,60.0-70.0
60.0,825.0,-1.33,-0.95,9.98,-1.39,1.98,-2.12,27.97,60.0-70.0
60.0,1065.0,0.54,0.97,9.7,1.52,-2.3,0.17,27.97,60.0-70.0
60.0,309.0,0.33,-0.76,9.63,-1.73,1.37,-0.09,27.97,60.0-70.0
60.0,377.0,-1.31,1.02,9.91,1.73,-1.92,0.23,27.97,60.0-70.0
60.0,672.0,0.51,-0.84,9.66,-1.94,1.61,1.34,27.97,60.0-70.0
60.0,1125.0,-1.43,1.14,9.89,1.73,-1.9,1.21,27.99,60.0-70.0
60.0,1047.0,1.11,0.09,10.17,-1.45,-1.23,2.09,27.98,60.0-70.0
60.0,1019.0,-1.74,-0.14,9.11,0.82,1.81,-1.02,27.97,60.0-70.0
60.0,1371.0,1.02,0.1,10.21,-1.47,-1.34,0.69,27.99,60.0-70.0
60.0,1190.0,-1.65,-0.18,9.18,1.03,1.67,-2.44,27.96,60.0-70.0
60.0,1378.0,0.05,0.87,9.73,0.7,-2.5,0.02,27.94,60.0-70.0
60.0,1110.0,-0.97,-0.97,9.75,-0.81,3.01,-2.12,27.97,60.0-70.0
60.0,1423.0,0.03,0.78,9.74,0.54,-2.36,1.08,27.97,60.0-70.0
60.0,1947.0,-0.87,-0.92,9.75,-0.91,2.92,-0.7,27.97,60.0-70.0
60.0,891.0,-1.07,1.23,9.41,2.09,-1.5,1.42,27.98,60.0-70.0
60.0,560.0,0.34,-0.97,10.27,-2.1,0.66,1.16,27.98,60.0-70.0
60.0,374.0,-0.8,1.3,9.29,2.22,-1.24,1.27,27.96,60.0-70.0
60.0,994.0,0.16,-0.98,10.44,-2.16,0.48,-0.08,27.96,60.0-70.0
60.0,610.0,-0.97,0.06,9.54,1.32,0.6,-1.56,27.99,60.0-70.0
60.0,918.0,0.16,-0.05,9.9,-1.7,-0.86,0.08,27.97,60.0-70.0
60.0,1499.0,-0.96,0.09,9.67,1.41,0.13,-2.12,27.97,60.0-70.0
60.0,1328.0,0.04,-0.21,9.76,-1.87,-0.57,0.34,28.0,60.0-70.0
60.0,1196.0,-1.0,-0.67,9.56,-0.17,2.75,-1.56,27.98,60.0-70.0
60.0,1728.0,0.04,0.57,9.66,-0.05,-1.78,1.94,27.96,60.0-70.0
60.0,1328.0,-1.06,-0.58,9.53,-0.22,2.46,-0.34,27.97,60.0-70.0
60.0,1159.0,0.26,0.49,9.75,-0.3,-1.56,2.38,27.97,60.0-70.0
60.0,2006.0,-0.75,-0.99,10.22,-2.05,0.51,0.29,27.99,60.0-70.0
60.0,669.0,0.33,1.15,9.32,1.98,-1.17,0.76,27.99,60.0-70.0
60.0,1149.0,-0.86,-0.96,10.21,-1.85,1.01,-1.27,27.97,60.0-70.0
60.0,496.0,0.49,1.07,9.45,2.04,-1.46,-0.26,27.98,60.0-70.0
60.0,1136.0,-0.1,-0.48,9.51,-1.79,0.92,-0.4,27.99,60.0-70.0
60.0,715.0,-0.89,0.68,10.08,1.6,-1.63,-1.14,27.99,60.0-70.0
60.0,1811.0,-0.02,-0.57,9.51,-1.71,1.35,0.81,27.99,60.0-70.0
60.0,1725.0,-1.64,-0.36,9.2,0.33,2.13,-0.75,27.99,60.0-70.0
60.0,1518.0,0.98,0.22,10.14,-0.91,-1.32,2.38,27.99,60.0-70.0
60.0,1753.0,-1.62,-0.3,9.19,0.5,1.76,-0.38,27.96,60.0-70.0
60.0,1804.0,1.15,0.25,10.24,-1.06,-1.3,1.79,28.02,60.0-70.0
60.0,779.0,-1.2,-0.95,9.87,-1.42,2.43,-0.99,27.98,60.0-70.0
60.0,1735.0,0.48,0.91,9.64,1.03,-2.19,0.34,27.98,60.0-70.0
60.0,2096.0,-1.23,-1.01,9.84,-1.35,2.59,-2.2,27.97,60.0-70.0
60.0,1969.0,0.27,0.87,9.61,0.99,-2.16,0.15,27.99,60.0-70.0
60.0,1507.0,0.52,-0.93,9.98,-1.71,1.37,-0.34,27.98,60.0-70.0
60.0,1125.0,-1.33,1.14,9.76,1.93,-1.72,0.29,27.99,60.0-70.0
60.0,1158.0,0.41,-0.96,10.04,-1.9,1.35,0.93,27.97,60.0-70.0
60.0,1360.0,-1.21,1.24,9.5,2.07,-1.41,1.39,27.99,60.0-70.0
60.0,925.0,0.76,0.06,10.22,-1.76,-1.43,2.18,28.0,60.0-70.0
60.0,2000.0,-1.32,0.0,9.31,1.2,1.14,-0.72,27.97,60.0-70.0
60.0,1873.0,0.59,0.12,10.16,-1.62,-1.32,1.01,27.99,60.0-70.0
60.0,2334.0,-1.2,0.02,9.43,1.4,0.8,-1.86,27.97,60.0-70.0
60.0,2019.0,-0.21,0.83,9.71,0.41,-2.34,0.34,27.98,60.0-70.0
60.0,1274.0,-0.86,-0.73,9.68,-0.48,2.8,-2.23,27.97,60.0-70.0
60.0,2305.0,-0.14,0.68,9.67,0.16,-2.08,0.99,27.97,60.0-70.0
60.0,2062.0,-0.96,-0.7,9.66,-0.39,2.83,-0.99,27.97,60.0-70.0
60.0,1763.0,-0.37,1.17,9.2,2.13,-0.71,1.3,28.0,60.0-70.0
60.0,1744.0,-0.26,-1.06,10.25,-2.25,0.62,0.58,27.97,60.0-70.0
60.0,2559.0,-0.12,1.19,9.24,2.07,-0.65,1.36,28.01,60.0-70.0
60.0,1509.0,-0.58,-1.01,10.18,-2.11,0.65,-0.26,27.96,60.0-70.0
60.0,1984.0,-0.82,0.43,10.03,1.63,-0.71,-1.05,28.0,60.0-70.0
60.0,1884.0,-0.1,-0.33,9.49,-1.76,0.65,0.05,27.98,60.0-70.0
60.0,1569.0,-0.85,0.5,10.05,1.55,-0.94,-1.63,27.97,60.0-70.0
60.0,1676.0,-0.13,-0.48,9.45,-1.81,1.01,0.09,27.96,60.0-70.0
60.0,2418.0,-1.52,-0.36,9.4,0.3,1.95,-1.65,27.99,60.0-70.0
60.0,2112.0,0.82,0.36,10.07,-0.62,-1.47,1.69,27.98,60.0-70.0
60.0,1949.0,-1.58,-0.29,9.35,0.33,1.79,-0.52,27.96,60.0-70.0
60.0,1969.0,1.01,0.3,10.11,-0.86,-1.52,2.17,27.99,60.0-70.0
60.0,1714.0,-1.37,-0.99,10.0,-1.85,1.72,-0.21,27.98,60.0-70.0
60.0,2368.0,0.58,0.99,9.62,1.41,-1.84,1.13,28.0,60.0-70.0
60.0,1071.0,-1.37,-0.96,9.89,-1.61,2.25,-1.5,27.98,60.0-70.0
60.0,1853.0,0.48,0.97,9.65,1.22,-2.05,0.24,27.99,60.0-70.0
60.0,1892.0,0.43,-0.86,9.78,-1.7,1.78,-0.56,27.99,60.0-70.0
60.0,1273.0,-1.38,1.03,9.81,1.89,-1.58,-0.63,27.99,60.0-70.0
60.0,1151.0,0.49,-0.97,9.83,-1.91,1.72,0.14,28.0,60.0-70.0
60.0,1387.0,-1.32,1.13,9.68,1.93,-1.44,0.66,27.98,60.0-70.0
60.0,1711.0,1.01,0.14,10.35,-1.55,-1.73,2.14,27.98,60.0-70.0
60.0,1733.0,-1.51,-0.07,9.35,1.02,1.26,-0.29,27.99,60.0-70.0
60.0,1637.0,0.86,0.16,10.31,-1.58,-1.66,1.79,27.99,60.0-70.0
60.0,2245.0,-1.42,0.03,9.33,1.34,1.12,-1.14,27.98,60.0-70.0
60.0,2518.0,-0.05,0.84,9.74,0.45,-2.3,0.84,28.0,60.0-70.0
60.0,1699.0,-0.86,-0.78,9.67,-0.52,3.18,-2.26,27.99,60.0-70.0
60.0,2198.0,-0.21,0.75,9.72,0.35,-2.22,0.47,27.99,60.0-70.0
60.0,1440.0,-0.83,-0.75,9.68,-0.52,2.98,-1.82,27.96,60.0-70.0
60.0,1710.0,-0.59,1.15,9.31,2.15,-1.02,0.5,27.96,60.0-70.0
60.0,1433.0,-0.13,-1.06,10.36,-2.14,0.6,0.31,27.99,60.0-70.0
60.0,1739.0,-0.32,1.22,9.32,2.21,-0.92,1.37,27.97,60.0-70.0
60.0,1105.0,-0.28,-1.03,10.34,-2.11,0.69,0.4,27.97,60.0-70.0
60.0,1681.0,-0.93,0.39,9.9,1.46,-0.33,-0.37,27.99,60.0-70.0
60.0,1040.0,-0.06,-0.15,9.69,-1.74,-0.27,0.95,27.98,60.0-70.0
60.0,1060.0,-0.82,0.56,10.05,1.69,-0.88,-1.25,27.99,60.0-70.0
60.0,1552.0,-0.11,-0.27,9.6,-1.74,0.13,0.11,27.97,60.0-70.0
60.0,2601.0,-1.32,-0.48,9.3,0.06,2.56,-2.24,27.97,60.0-70.0
60.0,1104.0,0.57,0.31,9.88,-0.51,-1.24,0.87,28.0,60.0-70.0
60.0,1530.0,-1.45,-0.46,9.25,0.15,2.33,-1.3,27.99,60.0-70.0
60.0,1524.0,0.84,0.31,9.9,-0.72,-1.05,1.85,27.99,60.0-70.0
60.0,1296.0,-1.23,-1.07,10.1,-1.97,1.4,-0.03,27.97,60.0-70.0
60.0,1482.0,0.67,0.96,9.6,1.4,-1.79,1.65,27.99,60.0-70.0
60.0,1569.0,-1.26,-1.03,10.04,-1.78,1.82,-0.69,27.99,60.0-70.0
60.0,1010.0,0.55,0.93,9.73,1.29,-2.11,0.75,28.01,60.0-70.0
60.0,767.0,0.24,-0.6,9.72,-1.5,1.43,-0.0,28.0,60.0-70.0
60.0,1137.0,-1.2,1.15,9.97,2.07,-2.11,-0.7,28.0,60.0-70.0
60.0,919.0,0.34,-0.77,9.84,-1.58,1.55,-0.12,27.99,60.0-70.0
60.0,807.0,-1.36,1.19,9.84,2.1,-1.85,-0.02,27.99,60.0-70.0
60.0,749.0,1.17,0.02,10.27,-1.5,-1.5,1.4,28.01,60.0-70.0
60.0,1492.0,-1.62,-0.21,9.23,0.82,1.52,-0.69,27.99,60.0-70.0
60.0,1283.0,1.08,0.05,10.28,-1.74,-1.64,1.94,27.99,60.0-70.0
60.0,643.0,-1.49,-0.14,9.27,0.93,1.17,-0.79,27.95,60.0-70.0
60.0,1183.0,-0.14,0.83,9.67,0.38,-2.34,1.31,27.98,60.0-70.0
60.0,1173.0,-0.97,-0.92,9.65,-0.87,3.43,-1.74,27.97,60.0-70.0
60.0,1533.0,-0.22,0.77,9.62,0.32,-1.93,0.53,27.99,60.0-70.0
60.0,683.0,-0.91,-0.86,9.57,-0.66,3.55,-2.2,27.97,60.0-70.0
60.0,1159.0,-0.77,1.26,9.37,2.39,-1.24,-0.0,28.01,60.0-70.0
60.0,1036.0,0.13,-1.03,10.36,-1.81,0.72,-0.24,28.01,60.0-70.0
60.0,576.0,-0.43,1.24,9.34,2.44,-0.98,1.01,27.99,60.0-70.0
60.0,593.0,0.06,-1.1,10.42,-1.97,0.36,0.47,27.98,60.0-70.0
60.0,411.0,-0.99,0.27,9.74,1.28,-0.11,-0.15,27.96,60.0-70.0
60.0,1040.0,0.01,-0.06,9.75,-1.99,-0.98,1.6,27.99,60.0-70.0
60.0,970.0,-0.86,0.38,10.02,1.34,-1.02,-0.72,28.01,60.0-70.0
60.0,1718.0,-0.06,-0.17,9.79,-1.91,-0.57,0.63,27.97,60.0-70.0
60.0,1410.0,-1.23,-0.59,9.25,-0.13,3.26,-2.21,28.0,60.0-70.0
60.0,1987.0,0.28,0.42,9.6,-0.3,-0.82,0.4,28.01,60.0-70.0
60.0,1104.0,-1.43,-0.54,9.2,0.06,3.06,-1.92,27.97,60.0-70.0
60.0,2039.0,0.47,0.29,9.7,-0.48,-0.69,1.21,27.97,60.0-70.0
60.0,1038.0,-0.98,-1.09,10.19,-1.97,0.83,-0.21,27.98,60.0-70.0
60.0,1451.0,0.68,0.97,9.51,1.76,-1.69,1.54,27.97,60.0-70.0
60.0,1419.0,-1.13,-1.01,10.13,-1.88,1.37,-0.06,28.0,60.0-70.0
60.0,880.0,0.73,1.0,9.66,1.6,-1.92,1.34,27.98,60.0-70.0
60.0,506.0,-0.02,-0.44,9.56,-1.68,1.08,0.73,27.97,60.0-70.0
60.0,0.0,-1.25,1.13,10.06,1.83,-2.19,-0.47,27.99,60.0-70.0
60.0,749.0,0.22,-0.53,9.68,-1.47,1.24,-0.05,27.98,60.0-70.0
60.0,976.0,-1.36,1.19,10.04,2.05,-2.27,-0.43,28.0,60.0-70.0
60.0,1207.0,1.14,0.08,10.1,-1.18,-0.91,0.72,27.98,60.0-70.0
60.0,1099.0,-1.72,-0.29,9.0,0.68,2.01,-1.39,27.99,60.0-70.0
60.0,1648.0,1.23,0.06,10.25,-1.55,-1.4,1.53,27.99,60.0-70.0
60.0,875.0,-1.57,-0.22,9.23,0.79,1.59,-0.69,27.96,60.0-70.0
60.0,1535.0,0.14,0.8,9.68,0.57,-2.21,1.68,27.99,60.0-70.0
60.0,818.0,-1.02,-0.95,9.63,-1.13,3.24,-0.95,27.99,60.0-70.0
60.0,1630.0,0.03,0.84,9.73,0.57,-2.43,1.04,27.98,60.0-70.0
60.0,1194.0,-0.92,-0.89,9.75,-0.91,3.18,-1.85,27.97,60.0-70.0
60.0,1922.0,-1.08,1.4,9.5,2.47,-1.5,-0.12,27.98,60.0-70.0
60.0,649.0,0.23,-0.9,10.24,-1.61,0.82,-0.5,28.0,60.0-70.0
60.0,628.0,-0.82,1.36,9.43,2.56,-1.5,0.4,27.99,60.0-70.0
60.0,974.0,0.26,-0.89,10.38,-1.64,0.63,0.21,27.98,60.0-70.0
60.0,773.0,-0.98,-0.05,9.49,1.08,0.57,-0.73,28.0,60.0-70.0
60.0,1297.0,0.38,-0.2,9.97,-2.23,-1.09,1.66,27.98,60.0-70.0
60.0,2465.0,-0.88,0.05,9.77,1.0,-0.13,-0.61,27.98,60.0-70.0
60.0,1369.0,0.21,-0.21,9.75,-2.14,-0.77,1.07,27.96,60.0-70.0
60.0,1019.0,-1.14,-0.72,9.45,-0.37,3.52,-1.68,27.97,60.0-70.0
60.0,2092.0,-0.02,0.5,9.51,-0.23,-1.05,0.64,27.99,60.0-70.0
60.0,1531.0,-1.25,-0.66,9.35,-0.2,3.41,-2.18,27.98,60.0-70.0
60.0,1727.0,0.11,0.35,9.65,-0.31,-0.68,0.66,27.98,60.0-70.0
60.0,1633.0,-0.79,-0.96,10.27,-1.68,0.47,-0.5,27.98,60.0-70.0
60.0,1835.0,0.47,1.19,9.44,2.31,-1.52,1.3,27.99,60.0-70.0
60.0,1775.0,-0.87,-0.94,10.26,-1.74,0.8,0.12,27.98,60.0-70.0
60.0,2353.0,0.58,1.17,9.52,2.13,-1.55,1.66,28.0,60.0-70.0
60.0,1249.0,-0.07,-0.51,9.61,-2.2,0.42,1.1,27.99,60.0-70.0
60.0,1213.0,-0.98,0.83,10.02,1.4,-2.16,-0.24,27.99,60.0-70.0
60.0,1626.0,0.11,-0.65,9.75,-2.02,0.66,0.27,28.0,60.0-70.0
60.0,1488.0,-1.35,0.99,10.03,1.58,-2.17,-0.79,28.0,60.0-70.0
60.0,1209.0,-0.3,0.33,9.9,0.25,-1.29,0.99,27.57,60.0-70.0
60.0,1613.0,0.03,0.06,9.72,-0.51,0.01,1.39,27.56,60.0-70.0
60.0,982.0,-0.47,-0.13,9.75,-0.3,0.83,0.55,27.56,60.0-70.0
60.0,640.0,-0.86,0.28,9.57,0.9,-0.28,0.09,27.55,60.0-70.0
60.0,979.0,0.0,0.39,9.97,0.3,-1.7,1.34,27.55,60.0-70.0
60.0,1249.0,0.03,0.0,9.75,-0.86,-0.16,1.75,27.57,60.0-70.0
60.0,1489.0,-0.71,0.03,9.68,0.07,1.01,0.44,27.56,60.0-70.0
60.0,1631.0,-0.65,0.22,9.81,0.38,-0.69,-0.69,27.57,60.0-70.0
60.0,981.0,0.05,-0.01,9.97,-0.77,-0.77,0.11,27.58,60.0-70.0
60.0,1249.0,-0.31,-0.0,9.91,-0.04,0.63,-0.26,27.57,60.0-70.0
60.0,1653.0,-0.8,0.12,9.71,0.38,0.04,-1.71,27.59,60.0-70.0
60.0,1202.0,0.01,0.37,10.01,-0.1,-1.64,0.24,27.57,60.0-70.0
60.0,1180.0,-0.34,-0.32,9.88,-0.51,0.5,0.38,27.55,60.0-70.0
60.0,1583.0,-1.02,-0.18,9.4,-0.1,1.2,-0.58,27.54,60.0-70.0
60.0,2030.0,-0.04,0.44,9.58,0.32,-0.6,1.42,27.56,60.0-70.0
60.0,1290.0,-0.39,-0.43,9.67,-0.8,1.59,0.95,27.54,60.0-70.0
60.0,1962.0,-0.91,0.19,9.39,0.09,0.56,-0.58,27.55,60.0-70.0
60.0,1296.0,-0.06,0.6,9.64,0.71,-0.6,0.58,27.55,60.0-70.0
60.0,1244.0,-0.48,-0.55,9.81,-0.75,1.37,-0.61,27.57,60.0-70.0
60.0,2539.0,-0.58,0.2,9.23,0.15,0.62,-1.89,27.56,60.0-70.0
60.0,1919.0,0.13,0.12,9.86,-0.28,0.14,0.44,27.54,60.0-70.0
60.0,1643.0,-0.26,-0.62,9.86,-0.52,1.12,-0.53,27.54,60.0-70.0
60.0,867.0,-0.38,0.09,9.69,-0.36,-1.55,-0.55,27.55,60.0-70.0
60.0,1280.0,0.22,-0.98,10.04,-1.65,-0.83,1.05,27.56,60.0-70.0
60.0,2094.0,-0.23,0.15,10.01,1.25,-0.08,0.29,27.54,60.0-70.0
60.0,1202.0,-0.53,0.32,10.08,-0.62,-1.44,0.67,27.57,60.0-70.0
60.0,1003.0,-0.88,-0.68,9.78,-1.45,1.5,0.06,27.55,60.0-70.0
60.0,1833.0,-0.63,0.91,9.02,1.7,1.35,-0.38,27.59,60.0-70.0
60.0,1674.0,-0.17,-0.32,9.6,-0.57,0.95,-0.02,27.55,60.0-70.0
60.0,1699.0,-0.63,-0.49,9.87,-0.51,0.02,-1.22,27.57,60.0-70.0
60.0,2000.0,-0.08,0.44,9.98,-0.16,-2.21,-0.49,27.55,60.0-70.0
60.0,1085.0,-1.28,-0.68,9.79,-1.16,1.5,-0.81,27.57,60.0-70.0
60.0,1711.0,-0.09,0.97,9.23,1.55,0.33,0.7,27.56,60.0-70.0
60.0,1829.0,-0.11,0.51,9.84,-0.87,0.42,1.86,27.54,60.0-70.0
60.0,1443.0,-1.26,-0.35,9.63,-0.1,-0.01,0.11,27.55,60.0-70.0
60.0,2250.0,0.68,0.36,10.18,-0.52,-1.82,1.17,27.54,60.0-70.0
60.0,2084.0,-1.28,-0.75,9.36,-0.25,2.01,-0.87,27.56,60.0-70.0
60.0,1488.0,-0.7,1.06,9.64,1.95,-1.41,-0.11,27.56,60.0-70.0
60.0,1301.0,0.08,-0.28,9.85,-1.04,2.1,-0.08,27.54,60.0-70.0
60.0,2508.0,-0.77,0.18,10.08,1.32,-1.4,-1.53,27.56,60.0-70.0
60.0,1798.0,0.17,0.33,10.07,-0.98,-0.77,0.73,27.56,60.0-70.0
60.0,1743.0,-1.45,-0.69,9.4,-0.28,3.56,-1.19,27.54,60.0-70.0
60.0,2082.0,0.74,0.72,9.9,0.68,-2.31,1.3,27.54,60.0-70.0
60.0,1620.0,-1.41,-0.73,9.59,-1.55,2.98,0.09,27.54,60.0-70.0
60.0,1247.0,-0.01,1.09,9.31,1.7,-0.83,1.43,27.55,60.0-70.0
60.0,1322.0,0.38,0.15,9.92,-1.27,-1.11,1.71,27.57,60.0-70.0
60.0,2228.0,-1.68,-0.3,9.4,0.36,0.71,-1.4,27.57,60.0-70.0
60.0,2107.0,1.24,0.26,10.31,-0.74,-1.81,0.75,27.58,60.0-70.0
60.0,1808.0,-1.75,-0.55,9.16,0.27,2.04,-2.09,27.55,60.0-70.0
60.0,1799.0,0.4,0.85,9.78,1.57,-2.1,0.18,27.55,60.0-70.0
60.0,1758.0,-0.68,-0.9,10.26,-1.65,0.6,-0.76,27.56,60.0-70.0
60.0,935.0,-0.48,1.09,9.34,2.04,-0.91,0.6,27.57,60.0-70.0
60.0,1568.0,0.27,-0.94,10.47,-1.94,0.01,0.5,27.59,60.0-70.0
60.0,1009.0,-1.41,-0.21,9.45,0.53,1.15,-0.6,27.56,60.0-70.0
60.0,2315.0,0.78,0.28,10.07,-1.12,-1.06,1.86,27.54,60.0-70.0
60.0,2615.0,-1.49,-0.29,9.17,0.48,1.59,-0.93,27.57,60.0-70.0
60.0,1762.0,0.79,0.27,10.11,-0.94,-0.97,0.78,27.56,60.0-70.0
60.0,1856.0,-1.12,-0.77,9.93,-1.26,1.49,-1.08,27.54,60.0-70.0
60.0,1968.0,0.28,1.04,9.55,1.81,-1.2,0.12,27.54,60.0-70.0
60.0,1552.0,-0.68,-0.9,10.22,-1.74,0.69,-0.92,27.55,60.0-70.0
60.0,1535.0,-0.11,1.1,9.38,2.02,-0.91,0.49,27.57,60.0-70.0
60.0,1562.0,-0.04,-0.18,9.68,-1.5,0.19,1.07,27.57,60.0-70.0
60.0,2275.0,-1.26,-0.13,9.58,0.82,0.4,-0.69,27.57,60.0-70.0
60.0,1501.0,0.4,-0.03,9.93,-1.62,-0.66,1.74,27.56,60.0-70.0
60.0,2190.0,-1.43,-0.2,9.28,0.73,1.12,-0.82,27.55,60.0-70.0
60.0,1599.0,0.15,0.76,10.01,0.48,-2.83,1.43,27.56,60.0-70.0
60.0,2192.0,-1.2,-0.61,9.65,-0.55,3.09,-1.24,27.57,60.0-70.0
60.0,1923.0,0.39,0.82,9.98,0.83,-2.62,0.56,27.55,60.0-70.0
60.0,1835.0,-1.23,-0.8,9.71,-1.04,2.49,-1.63,27.54,60.0-70.0
60.0,1184.0,-1.1,1.05,9.9,1.81,-1.82,-0.6,27.55,60.0-70.0
60.0,1125.0,0.15,-0.53,9.7,-1.42,1.52,0.4,27.55,60.0-70.0
60.0,1075.0,-1.03,0.81,10.1,1.54,-1.73,-0.03,27.55,60.0-70.0
60.0,1182.0,-0.07,-0.41,9.56,-1.44,1.15,1.4,27.56,60.0-70.0
60.0,1484.0,-1.29,-0.42,9.21,0.44,2.25,-0.58,27.55,60.0-70.0
60.0,2475.0,0.6,0.33,9.87,-0.69,-0.98,1.48,27.56,60.0-70.0
60.0,1593.0,-1.2,-0.44,9.28,0.45,2.78,-1.31,27.54,60.0-70.0
60.0,2318.0,0.32,0.36,9.72,-0.48,-1.03,0.61,27.57,60.0-70.0
60.0,1535.0,-0.46,-1.1,10.35,-1.91,0.16,-0.99,27.57,60.0-70.0
60.0,1905.0,0.12,1.17,9.4,2.3,-1.26,0.17,27.57,60.0-70.0
60.0,1659.0,-0.09,-1.04,10.37,-1.84,0.31,-0.73,27.55,60.0-70.0
60.0,1238.0,-0.07,1.11,9.35,2.21,-1.09,0.78,27.55,60.0-70.0
60.0,912.0,0.0,-0.06,9.87,-1.85,-0.97,1.42,27.53,60.0-70.0
60.0,1502.0,-1.25,0.18,9.8,0.99,-0.48,-0.27,27.55,60.0-70.0
60.0,1729.0,0.23,-0.08,9.93,-1.97,-1.0,1.8,27.57,60.0-70.0
60.0,1875.0,-1.16,0.1,9.77,1.03,-0.08,-0.63,27.56,60.0-70.0
60.0,2229.0,-0.09,0.51,9.68,-0.13,-1.81,1.17,27.57,60.0-70.0
60.0,1883.0,-1.24,-0.6,9.46,-0.19,3.91,-1.88,27.57,60.0-70.0
60.0,1882.0,-0.05,0.64,9.73,0.18,-1.98,0.53,27.56,60.0-70.0
60.0,916.0,-1.17,-0.6,9.47,-0.1,3.79,-1.86,27.55,60.0-70.0
60.0,1141.0,-0.55,1.21,9.32,2.21,-1.52,0.24,27.55,60.0-70.0
60.0,1927.0,0.22,-0.93,10.32,-1.78,0.97,0.03,27.55,60.0-70.0
60.0,1504.0,-0.78,1.3,9.22,2.28,-1.3,1.07,27.56,60.0-70.0
60.0,431.0,0.38,-0.88,10.33,-1.85,0.83,0.73,27.55,60.0-70.0
60.0,1408.0,-1.45,-0.18,9.26,0.79,0.94,-0.72,27.55,60.0-70.0
60.0,1203.0,0.59,-0.03,10.07,-1.9,-0.83,1.28,27.56,60.0-70.0
60.0,1874.0,-1.48,-0.2,9.23,0.85,1.15,-1.42,27.56,60.0-70.0
60.0,1190.0,0.61,0.01,10.07,-1.73,-0.76,0.49,27.57,60.0-70.0
60.0,901.0,-1.18,-0.76,9.62,-0.45,3.52,-1.89,27.57,60.0-70.0
60.0,1504.0,0.15,0.71,9.8,0.53,-2.39,0.75,27.55,60.0-70.0
60.0,1535.0,-1.29,-0.77,9.58,-0.52,3.49,-1.5,27.56,60.0-70.0
60.0,1639.0,0.01,0.75,9.9,0.51,-2.42,1.43,27.56,60.0-70.0
60.0,1327.0,0.46,-0.91,10.31,-1.71,0.86,0.56,27.57,60.0-70.0
60.0,930.0,-0.81,1.3,9.4,2.22,-1.98,1.21,27.57,60.0-70.0
60.0,1515.0,0.42,-0.9,10.23,-1.84,1.04,0.6,27.55,60.0-70.0
60.0,913.0,-0.82,1.35,9.42,2.15,-1.85,0.72,27.57,60.0-70.0
60.0,1237.0,0.77,-0.09,10.24,-1.9,-0.91,0.84,27.59,60.0-70.0
60.0,944.0,-1.65,-0.26,9.12,0.82,1.5,-1.83,27.58,60.0-70.0
60.0,1296.0,0.68,-0.05,10.06,-1.74,-0.51,0.29,27.56,60.0-70.0
60.0,1843.0,-1.59,-0.23,9.04,0.97,1.61,-1.79,27.56,60.0-70.0
60.0,2002.0,0.19,0.73,9.85,0.62,-2.34,1.05,27.56,60.0-70.0
60.0,1104.0,-1.24,-0.83,9.63,-0.6,3.44,-1.1,27.58,60.0-70.0
60.0,1859.0,0.11,0.74,9.8,0.57,-2.22,1.72,27.58,60.0-70.0
60.0,821.0,-1.21,-0.75,9.56,-0.57,3.53,-0.64,27.58,60.0-70.0
60.0,844.0,-0.79,1.35,9.5,2.33,-2.08,1.07,27.57,60.0-70.0
60.0,1371.0,0.47,-0.91,10.26,-1.76,0.97,0.26,27.55,60.0-70.0
60.0,1231.0,-0.79,1.34,9.46,2.25,-1.99,0.32,27.55,60.0-70.0
60.0,1118.0,0.36,-0.9,10.32,-1.74,0.83,-0.41,27.54,60.0-70.0
60.0,955.0,-1.63,-0.15,9.17,1.03,1.09,-1.85,27.55,60.0-70.0
60.0,1281.0,0.63,-0.01,10.12,-1.67,-0.77,0.63,27.55,60.0-70.0
60.0,889.0,-1.57,-0.13,9.18,0.96,1.21,-1.39,27.55,60.0-70.0
60.0,1688.0,0.6,-0.07,10.19,-1.81,-0.92,1.27,27.56,60.0-70.0
60.0,1646.0,-1.08,-0.85,9.58,-0.63,3.18,-0.87,27.56,60.0-70.0
60.0,2262.0,0.28,0.66,9.92,0.27,-2.57,1.75,27.57,60.0-70.0
60.0,881.0,-1.16,-0.87,9.62,-0.65,3.21,-0.95,27.56,60.0-70.0
60.0,1917.0,0.14,0.67,9.86,0.35,-2.27,1.1,27.57,60.0-70.0
60.0,703.0,0.26,-0.8,10.49,-1.61,0.5,0.03,27.56,60.0-70.0
60.0,1468.0,-0.84,1.43,9.58,2.56,-2.24,0.4,27.55,60.0-70.0
60.0,775.0,0.27,-0.72,10.48,-1.42,0.68,-0.15,27.58,60.0-70.0
60.0,642.0,-0.73,1.45,9.52,2.63,-2.02,0.56,27.56,60.0-70.0
60.0,695.0,0.6,-0.1,10.08,-2.05,-0.95,0.81,27.57,60.0-70.0
60.0,1660.0,-1.49,-0.08,9.22,0.82,0.88,-1.05,27.56,60.0-70.0
60.0,1571.0,0.53,-0.03,10.04,-2.0,-1.12,1.43,27.56,60.0-70.0
60.0,1453.0,-1.39,-0.03,9.28,0.9,0.4,-0.81,27.57,60.0-70.0
60.0,1283.0,-0.0,0.58,9.64,0.12,-1.53,1.39,27.56,60.0-70.0
60.0,1616.0,-1.11,-0.78,9.46,-0.4,4.34,-1.48,27.56,60.0-70.0
60.0,1283.0,0.03,0.57,9.69,0.09,-1.87,0.78,27.56,60.0-70.0
60.0,1136.0,-1.18,-0.78,9.51,-0.33,3.84,-2.03,27.58,60.0-70.0
60.0,554.0,-0.45,1.42,9.43,2.77,-1.85,0.5,27.56,60.0-70.0
60.0,684.0,0.34,-0.87,10.62,-1.56,0.24,-0.08,27.56,60.0-70.0
60.0,160.0,-0.42,1.37,9.51,2.65,-2.17,1.01,27.56,60.0-70.0
60.0,1118.0,0.34,-0.94,10.67,-1.78,-0.19,0.38,27.59,60.0-70.0
60.0,775.0,-1.36,0.16,9.44,0.99,0.14,-0.56,27.58,60.0-70.0
60.0,656.0,0.33,-0.05,9.89,-2.2,-1.23,1.56,27.57,60.0-70.0
60.0,979.0,-1.25,0.18,9.63,1.06,-0.13,-0.78,27.56,60.0-70.0
60.0,1710.0,-0.11,0.48,9.54,-0.1,-1.09,1.01,27.57,60.0-70.0
60.0,1843.0,-1.24,-0.8,9.28,-0.2,4.25,-2.01,27.55,60.0-70.0
60.0,1733.0,-0.15,0.37,9.51,-0.19,-1.15,0.52,27.58,60.0-70.0
60.0,1106.0,-1.14,-0.78,9.31,-0.2,4.33,-2.17,27.54,60.0-70.0
60.0,976.0,-0.17,1.26,9.48,2.54,-1.66,0.78,27.56,60.0-70.0
60.0,1274.0,0.1,-0.98,10.58,-1.67,0.18,-0.03,27.57,60.0-70.0
60.0,1162.0,-0.03,1.19,9.49,2.45,-1.67,1.36,27.55,60.0-70.0
60.0,1309.0,0.11,-1.1,10.55,-1.91,-0.02,0.26,27.58,60.0-70.0
60.0,642.0,-1.16,0.57,9.92,1.43,-1.05,-0.2,27.58,60.0-70.0
60.0,853.0,0.01,0.08,9.8,-1.81,-1.08,1.34,27.57,60.0-70.0
60.0,1006.0,-1.08,0.55,10.08,1.44,-1.23,-0.6,27.55,60.0-70.0
60.0,720.0,-0.08,0.07,9.77,-1.62,-1.09,0.85,27.57,60.0-70.0
60.0,1146.0,-1.25,-0.7,9.06,-0.1,4.39,-2.33,27.58,60.0-70.0
60.0,1142.0,-0.0,0.25,9.37,-0.71,-0.45,0.4,27.57,60.0-70.0
60.0,892.0,-1.32,-0.73,9.1,-0.26,4.14,-2.03,27.56,60.0-70.0
60.0,1114.0,0.0,0.23,9.47,-0.74,-0.53,0.9,27.57,60.0-70.0
60.0,1815.0,-0.39,-1.19,10.35,-2.0,0.56,-0.17,27.58,60.0-70.0
60.0,1296.0,0.32,1.01,9.4,2.13,-1.15,1.39,27.57,60.0-70.0
60.0,1215.0,-0.51,-1.15,10.32,-2.07,0.82,-0.29,27.57,60.0-70.0
60.0,1296.0,0.3,1.0,9.4,2.02,-0.91,0.93,27.55,60.0-70.0
60.0,1671.0,-0.01,0.01,9.8,-1.3,-0.82,1.22,27.55,60.0-70.0
60.0,1471.0,-0.81,0.93,10.34,2.05,-2.34,-0.31,27.57,60.0-70.0
60.0,919.0,0.0,-0.02,9.81,-1.21,-0.68,0.85,27.56,60.0-70.0
60.0,1103.0,-0.79,0.92,10.33,2.05,-2.36,-0.17,27.56,60.0-70.0
60.0,1614.0,0.17,0.11,9.55,-1.1,-0.4,0.67,27.55,60.0-70.0
60.0,400.0,-1.47,-0.6,9.0,-0.1,3.32,-1.69,27.58,60.0-70.0
60.0,1491.0,0.23,0.13,9.73,-1.15,-0.5,1.14,27.55,60.0-70.0
60.0,1755.0,-1.47,-0.56,8.97,-0.07,3.09,-1.45,27.56,60.0-70.0
60.0,2215.0,0.52,0.89,9.53,1.72,-1.08,1.27,27.58,60.0-70.0
60.0,1527.0,-1.04,-1.16,10.09,-1.84,1.67,-0.9,27.57,60.0-70.0
60.0,2338.0,0.45,0.88,9.59,1.61,-1.14,0.72,27.58,60.0-70.0
60.0,1050.0,-1.22,-1.17,9.98,-1.82,2.16,-1.4,27.56,60.0-70.0
60.0,1197.0,-0.75,1.11,10.4,2.31,-3.18,-0.0,27.56,60.0-70.0
60.0,1111.0,0.16,-0.29,9.91,-1.13,-0.11,0.89,27.53,60.0-70.0
60.0,1191.0,-0.78,1.18,10.35,2.34,-2.75,0.41,27.56,60.0-70.0
60.0,406.0,0.29,-0.4,9.9,-1.15,0.39,1.24,27.57,60.0-70.0
60.0,1103.0,-1.55,-0.51,8.98,0.09,1.79,-1.34,27.59,60.0-70.0
60.0,1504.0,0.79,-0.02,9.96,-1.61,-1.06,1.19,27.55,60.0-70.0
60.0,1986.0,-1.45,-0.45,9.04,0.22,1.9,-1.43,27.55,60.0-70.0
60.0,1899.0,0.93,0.1,10.02,-1.47,-0.97,0.84,27.57,60.0-70.0
60.0,2071.0,-1.49,-1.13,9.78,-1.73,2.83,-1.48,27.56,60.0-70.0
60.0,1386.0,0.32,0.85,9.6,1.23,-1.18,0.5,27.56,60.0-70.0
60.0,1385.0,-1.56,-1.05,9.64,-1.49,3.35,-1.65,27.55,60.0-70.0
60.0,2379.0,0.29,0.75,9.58,0.99,-1.17,0.7,27.56,60.0-70.0
60.0,1246.0,0.48,-0.54,10.09,-1.07,0.8,0.79,27.57,60.0-70.0
60.0,914.0,-0.76,1.34,10.17,2.51,-2.82,0.9,27.55,60.0-70.0
60.0,1270.0,0.39,-0.54,10.16,-0.97,0.88,1.13,27.55,60.0-70.0
60.0,615.0,-0.7,1.35,10.22,2.59,-3.06,0.98,27.57,60.0-70.0
60.0,919.0,0.99,0.01,10.3,-1.93,-1.46,1.11,27.55,60.0-70.0
60.0,1104.0,-1.55,-0.31,9.1,0.42,1.03,-1.45,27.54,60.0-70.0
60.0,1392.0,1.0,-0.03,10.32,-1.93,-1.75,0.66,27.57,60.0-70.0
60.0,1961.0,-1.53,-0.29,9.16,0.47,0.83,-1.74,27.57,60.0-70.0
60.0,1761.0,0.1,0.68,9.55,0.65,-1.27,0.52,27.54,60.0-70.0
60.0,1378.0,-1.54,-1.03,9.39,-1.2,4.36,-1.75,27.56,60.0-70.0
60.0,1869.0,0.0,0.68,9.59,0.56,-1.23,0.92,27.57,60.0-70.0
60.0,2493.0,-1.69,-0.97,9.3,-1.04,4.74,-1.3,27.57,60.0-70.0
60.0,1773.0,-0.55,1.38,9.9,2.74,-2.85,1.19,27.57,60.0-70.0
60.0,1361.0,0.74,-0.85,10.51,-1.29,0.43,0.79,27.57,60.0-70.0
60.0,1342.0,-0.46,1.32,9.75,2.67,-2.54,0.92,27.55,60.0-70.0
60.0,1183.0,0.77,-0.91,10.5,-1.35,0.56,0.38,27.55,60.0-70.0
60.0,937.0,-1.54,-0.15,9.39,0.62,0.05,-1.43,27.54,60.0-70.0
60.0,1511.0,0.76,0.07,10.32,-1.99,-2.13,0.85,27.55,60.0-70.0
60.0,1922.0,-1.5,-0.11,9.44,0.76,-0.13,-1.34,27.55,60.0-70.0
60.0,1209.0,0.72,0.02,10.4,-2.02,-2.21,1.11,27.57,60.0-70.0
60.0,1418.0,-1.59,-0.87,9.24,-0.55,5.03,-1.6,27.57,60.0-70.0
60.0,1535.0,-0.25,0.58,9.47,0.22,-0.98,1.05,27.58,60.0-70.0
60.0,2544.0,-1.6,-0.91,9.25,-0.74,4.97,-1.54,27.58,60.0-70.0
60.0,1503.0,-0.25,0.59,9.44,0.13,-0.65,1.04,27.58,60.0-70.0
60.0,1601.0,0.73,-1.05,10.65,-1.61,0.22,0.27,27.57,60.0-70.0
60.0,1795.0,-0.39,1.21,9.59,2.56,-2.34,0.79,27.59,60.0-70.0
60.0,1631.0,0.65,-1.03,10.61,-1.44,0.53,-0.11,27.55,60.0-70.0
60.0,721.0,-0.34,1.2,9.57,2.65,-1.96,0.55,27.56,60.0-70.0
60.0,1553.0,0.53,0.06,10.35,-2.08,-2.46,1.08,27.56,60.0-70.0
60.0,975.0,-1.44,0.14,9.62,1.0,-0.66,-0.96,27.57,60.0-70.0
60.0,1763.0,0.36,0.08,10.3,-1.97,-2.16,1.4,27.57,60.0-70.0
60.0,1777.0,-1.53,0.28,9.56,1.14,-0.34,-0.52,27.56,60.0-70.0
60.0,2607.0,-0.17,0.48,9.3,-0.04,-0.77,1.13,27.55,60.0-70.0
60.0,1292.0,-1.32,-0.82,9.14,-0.4,5.13,-1.59,27.55,60.0-70.0
60.0,2132.0,-0.2,0.46,9.33,-0.08,-0.59,0.79,27.58,60.0-70.0
60.0,1981.0,-1.25,-0.78,9.07,-0.3,5.29,-2.01,27.56,60.0-70.0
60.0,1791.0,-0.25,1.11,9.57,2.39,-2.19,0.55,27.56,60.0-70.0
60.0,1787.0,0.26,-1.18,10.69,-2.0,0.1,-0.47,27.57,60.0-70.0
60.0,1934.0,-0.27,1.12,9.52,2.3,-1.84,0.66,27.57,60.0-70.0
60.0,902.0,0.34,-1.21,10.61,-2.05,0.27,-0.2,27.56,60.0-70.0
60.0,1664.0,-1.53,0.53,9.76,1.32,-0.44,-0.5,27.57,60.0-70.0
60.0,1567.0,0.02,0.17,10.0,-1.81,-1.5,1.62,27.56,60.0-70.0
60.0,1350.0,-1.53,0.59,9.77,1.6,-0.56,-0.27,27.56,60.0-70.0
60.0,2282.0,-0.06,0.24,9.88,-1.59,-1.2,1.53,27.55,60.0-70.0
60.0,953.0,-0.94,-0.69,9.11,0.03,4.49,-1.65,27.55,60.0-70.0
60.0,1804.0,0.15,0.42,9.33,-0.07,-0.94,0.79,27.56,60.0-70.0
60.0,1625.0,-0.97,-0.64,9.12,0.18,4.28,-1.98,27.53,60.0-70.0
60.0,2458.0,0.23,0.35,9.47,-0.33,-1.05,0.66,27.55,60.0-70.0
60.0,1375.0,-0.13,-1.16,10.56,-2.13,0.04,-0.53,27.54,60.0-70.0
60.0,1764.0,-0.06,1.04,9.51,2.04,-1.81,0.87,27.56,60.0-70.0
60.0,1503.0,-0.18,-1.21,10.66,-2.35,-0.37,-0.27,27.57,60.0-70.0
60.0,1162.0,-0.17,1.05,9.56,1.9,-1.9,1.13,27.54,60.0-70.0
60.0,1175.0,-0.17,0.14,9.77,-1.45,-0.47,1.56,27.56,60.0-70.0
60.0,1555.0,-1.31,0.8,9.97,1.95,-0.39,-0.34,27.54,60.0-70.0
60.0,1692.0,-0.15,0.12,9.79,-1.41,-0.3,1.21,27.54,60.0-70.0
60.0,1739.0,-1.26,0.85,9.97,2.01,-0.47,-0.61,27.57,60.0-70.0
60.0,1969.0,0.6,0.27,9.59,-0.45,-1.37,0.72,27.56,60.0-70.0
60.0,2064.0,-0.69,-0.68,9.2,0.06,3.21,-1.88,27.54,60.0-70.0
60.0,2435.0,0.63,0.21,9.58,-0.62,-1.3,0.78,27.55,60.0-70.0
60.0,1633.0,-0.67,-0.71,9.24,0.01,2.86,-1.66,27.55,60.0-70.0
60.0,1832.0,-0.02,0.92,9.56,1.58,-1.56,0.99,27.55,60.0-70.0
60.0,1394.0,-0.92,-1.18,10.42,-2.45,0.53,-0.32,27.57,60.0-70.0
60.0,1776.0,0.0,0.93,9.51,1.55,-1.3,1.01,27.55,60.0-70.0
60.0,1323.0,-1.01,-1.21,10.3,-2.46,1.0,-0.67,27.54,60.0-70.0
60.0,1666.0,-0.93,0.98,10.2,2.38,-1.35,-0.09,27.54,60.0-70.0
60.0,1429.0,-0.02,-0.05,9.72,-1.07,0.21,0.98,27.54,60.0-70.0
60.0,1428.0,-0.86,1.01,10.21,2.31,-1.37,-0.34,27.55,60.0-70.0
60.0,1955.0,0.03,-0.07,9.67,-1.0,0.5,0.89,27.57,60.0-70.0
60.0,1802.0,-0.92,-0.67,9.26,-0.08,2.07,-1.85,27.57,60.0-70.0
60.0,2511.0,0.8,0.09,9.93,-1.09,-1.64,1.07,27.58,60.0-70.0
60.0,1627.0,-0.96,-0.55,9.26,-0.02,1.85,-1.27,27.54,60.0-70.0
60.0,1906.0,0.83,0.15,9.98,-1.24,-1.9,1.37,27.54,60.0-70.0
60.0,1733.0,-1.5,-1.0,10.03,-2.13,1.9,-0.69,27.54,60.0-70.0
60.0,2419.0,0.08,1.04,9.4,1.63,-0.82,1.01,27.57,60.0-70.0
60.0,1250.0,-1.51,-0.98,10.03,-1.94,2.02,-1.02,27.57,60.0-70.0
60.0,1876.0,0.17,0.99,9.45,1.58,-0.85,0.78,27.54,60.0-70.0
60.0,1867.0,0.28,-0.34,9.61,-1.04,0.86,0.7,27.55,60.0-70.0
60.0,1187.0,-0.68,1.12,10.21,2.45,-2.01,-0.11,27.57,60.0-70.0
60.0,1658.0,0.31,-0.4,9.73,-0.95,0.77,0.87,27.55,60.0-70.0
60.0,1946.0,-0.63,1.14,10.23,2.38,-2.33,0.29,27.57,60.0-70.0
60.0,991.0,0.86,0.01,10.11,-1.5,-1.47,1.04,27.54,60.0-70.0
60.0,2090.0,-1.42,-0.57,9.11,0.03,1.52,-1.4,27.56,60.0-70.0
60.0,1648.0,0.86,-0.05,10.12,-1.78,-1.41,0.96,27.54,60.0-70.0
60.0,1562.0,-1.49,-0.54,9.11,-0.05,1.4,-1.63,27.57,60.0-70.0
60.0,1922.0,0.21,1.04,9.68,1.51,-1.05,0.99,27.58,60.0-70.0
