Speed,Voice,Acceleration X,Acceleration Y,Acceleration Z,Gyro X,Gyro Y,Gyro Z,Temperature,Speed_Range
60.0,1586.0,0.1,0.22,9.78,-0.08,-0.39,0.84,27.94,60.0-70.0
60.0,1285.0,0.01,-0.09,9.77,-0.42,-0.05,0.49,27.95,60.0-70.0
60.0,1221.0,-0.28,-0.21,9.77,-0.4,-0.24,-0.41,27.95,60.0-70.0
60.0,1587.0,-0.13,0.15,9.8,0.15,0.25,-0.29,27.94,60.0-70.0
60.0,1380.0,-0.05,0.06,9.85,-0.3,0.18,0.98,27.93,60.0-70.0
60.0,1531.0,-0.19,0.13,9.76,-0.04,0.3,0.61,27.93,60.0-70.0
60.0,1519.0,-0.0,0.03,9.86,0.13,-0.01,-0.15,27.93,60.0-70.0
60.0,1574.0,-0.06,0.23,9.77,-0.13,0.04,0.43,27.93,60.0-70.0
60.0,1501.0,-0.36,0.09,9.75,0.09,0.34,-0.02,27.94,60.0-70.0
60.0,1388.0,0.09,-0.02,9.85,0.27,-0.11,-0.93,27.94,60.0-70.0
60.0,1712.0,0.02,-0.32,9.85,-0.95,0.16,0.03,27.94,60.0-70.0
60.0,1518.0,-0.55,0.09,9.61,0.25,0.24,-0.11,27.94,60.0-70.0
60.0,1842.0,0.14,-0.12,9.84,0.03,-0.21,-0.63,27.96,60.0-70.0
60.0,1665.0,0.2,-0.4,9.92,-1.45,0.05,0.63,27.94,60.0-70.0
60.0,1899.0,-0.55,0.29,9.5,0.18,-0.56,0.24,27.94,60.0-70.0
60.0,1735.0,0.34,-0.17,9.97,-0.33,-0.31,-0.11,27.96,60.0-70.0
60.0,1729.0,-0.4,-0.73,9.91,-1.84,0.28,0.32,27.94,60.0-70.0
60.0,1870.0,-0.28,0.4,9.6,0.42,-0.21,-0.29,27.95,60.0-70.0
60.0,1858.0,0.49,0.94,9.93,0.96,0.1,0.7,27.94,60.0-70.0
60.0,1232.0,-0.64,-0.58,9.83,-1.0,1.04,-0.5,27.94,60.0-70.0
60.0,1584.0,0.48,0.19,9.77,0.15,-1.21,-0.31,27.95,60.0-70.0
60.0,1978.0,-0.1,-0.54,9.83,-0.87,0.54,-0.02,27.94,60.0-70.0
60.0,2366.0,-0.75,0.13,9.49,0.64,-0.19,-0.49,27.95,60.0-70.0
60.0,1664.0,1.33,0.12,10.16,-0.26,-1.2,0.4,27.96,60.0-70.0
60.0,1172.0,-0.76,-0.28,9.7,-0.13,0.65,0.18,27.93,60.0-70.0
60.0,1613.0,0.18,0.28,9.53,-0.07,-1.34,0.73,27.96,60.0-70.0
60.0,1905.0,-0.87,-0.85,9.83,-1.45,1.46,-0.37,27.95,60.0-70.0
60.0,1904.0,-0.03,0.02,9.94,0.47,-1.49,-0.46,27.94,60.0-70.0
60.0,1963.0,0.36,0.49,9.51,-0.26,-1.37,0.73,27.97,60.0-70.0
60.0,2254.0,-1.86,0.17,9.03,0.64,3.17,-0.84,27.95,60.0-70.0
60.0,1392.0,2.19,0.38,10.89,0.09,-0.76,0.5,27.93,60.0-70.0
60.0,1140.0,-1.27,-0.65,9.29,-1.15,0.45,-0.6,27.96,60.0-70.0
60.0,1114.0,0.48,0.1,10.1,0.33,-0.6,-0.15,27.95,60.0-70.0
60.0,1579.0,0.54,-0.92,10.34,-1.82,-0.48,-0.03,27.94,60.0-70.0
60.0,1650.0,-0.83,0.16,9.42,0.65,-0.3,-0.03,27.93,60.0-70.0
60.0,1682.0,1.2,0.42,10.05,0.01,-1.41,1.54,27.91,60.0-70.0
60.0,2058.0,-1.17,0.16,9.4,0.62,2.01,-0.31,27.96,60.0-70.0
60.0,2071.0,1.65,0.37,10.43,0.12,-1.55,1.1,27.97,60.0-70.0
60.0,1459.0,-1.17,0.24,9.17,0.86,2.46,-0.73,27.95,60.0-70.0
60.0,1408.0,0.62,0.09,10.36,-0.81,-3.2,0.03,27.95,60.0-70.0
60.0,1036.0,-0.05,-0.29,10.16,-0.58,0.54,-0.82,27.93,60.0-70.0
60.0,358.0,0.91,0.09,10.48,-0.68,-2.89,0.26,27.94,60.0-70.0
60.0,610.0,-0.18,-0.29,10.1,-0.52,0.05,-0.29,27.95,60.0-70.0
60.0,338.0,-1.11,0.09,9.33,0.12,-1.02,-0.23,27.92,60.0-70.0
60.0,955.0,0.34,-0.92,10.19,-1.24,0.37,0.21,27.92,60.0-70.0
60.0,1179.0,-1.12,0.2,9.13,0.5,-0.91,-0.23,27.94,60.0-70.0
60.0,1452.0,0.07,-0.93,10.06,-1.13,0.25,-0.23,27.94,60.0-70.0
60.0,2025.0,-0.37,0.02,9.49,0.61,1.61,-0.41,27.95,60.0-70.0
60.0,1956.0,0.6,-0.13,9.8,-0.65,0.01,0.6,27.95,60.0-70.0
60.0,1975.0,-0.65,0.08,9.57,0.48,1.5,-0.75,27.94,60.0-70.0
60.0,2034.0,0.2,-0.27,9.68,-0.72,1.08,0.4,27.94,60.0-70.0
60.0,1933.0,-1.11,0.55,9.51,0.71,1.44,-0.32,27.93,60.0-70.0
60.0,1223.0,1.14,0.61,10.08,-0.02,0.62,1.25,27.96,60.0-70.0
60.0,823.0,-1.17,0.65,9.26,0.77,1.76,0.24,27.94,60.0-70.0
60.0,806.0,0.76,0.47,10.02,-0.13,1.23,1.56,27.93,60.0-70.0
60.0,320.0,-0.29,-0.2,10.18,-0.11,-0.86,-0.43,27.94,60.0-70.0
60.0,20.0,0.68,0.4,10.17,-0.16,-3.62,0.78,27.94,60.0-70.0
60.0,0.0,-0.26,0.38,10.2,0.9,-0.69,-0.56,27.94,60.0-70.0
60.0,345.0,0.66,0.66,10.05,0.28,-1.76,0.7,27.94,60.0-70.0
60.0,347.0,-0.56,-0.73,9.75,-0.63,-0.6,-1.04,27.95,60.0-70.0
60.0,15.0,0.83,0.09,10.13,0.21,-3.3,0.02,27.93,60.0-70.0
60.0,784.0,-0.58,-0.29,10.07,0.27,-0.86,-0.82,27.94,60.0-70.0
60.0,1043.0,0.46,0.44,10.09,0.16,-3.49,0.89,27.94,60.0-70.0
60.0,1234.0,-0.37,-1.15,9.76,-1.93,1.29,-0.26,27.94,60.0-70.0
60.0,1189.0,0.73,-0.03,9.96,-0.25,-0.77,0.35,27.96,60.0-70.0
60.0,1781.0,-0.59,-0.53,9.64,-0.8,0.14,-0.55,27.95,60.0-70.0
60.0,1583.0,0.62,0.2,10.02,-0.36,-3.18,0.56,27.94,60.0-70.0
60.0,1921.0,-0.06,-1.14,9.96,-2.34,2.22,-0.41,27.95,60.0-70.0
60.0,1757.0,-0.05,-0.07,9.51,-0.45,0.89,-0.34,27.92,60.0-70.0
60.0,2201.0,-0.57,-0.85,9.57,-1.47,0.98,-0.95,27.95,60.0-70.0
60.0,1587.0,1.18,-0.04,10.14,-0.6,-2.36,0.37,27.94,60.0-70.0
60.0,1755.0,0.07,-1.07,10.03,-1.93,2.19,-0.18,27.95,60.0-70.0
60.0,1695.0,-0.27,-0.08,9.41,-0.4,0.6,0.05,27.95,60.0-70.0
60.0,2094.0,-0.69,-1.15,9.49,-1.88,0.97,-0.47,27.97,60.0-70.0
60.0,1827.0,1.16,-0.2,10.17,-0.68,-1.61,0.44,27.93,60.0-70.0
60.0,2071.0,-0.05,-1.08,9.96,-1.88,1.98,0.08,27.94,60.0-70.0
60.0,1818.0,-0.73,0.01,9.22,-0.25,1.29,-0.17,27.94,60.0-70.0
60.0,2118.0,-0.63,-1.04,9.7,-1.81,0.95,-0.84,27.94,60.0-70.0
60.0,1699.0,0.86,-0.14,10.1,-0.66,-1.03,-0.09,27.93,60.0-70.0
60.0,1941.0,0.39,-1.02,10.09,-1.74,2.07,-0.31,27.93,60.0-70.0
60.0,2143.0,-0.5,-0.08,9.19,-0.39,0.65,-0.27,27.95,60.0-70.0
60.0,2225.0,-0.49,-1.17,9.74,-2.03,1.03,-0.6,27.95,60.0-70.0
60.0,1965.0,1.2,-0.24,10.35,-0.91,-1.53,0.6,27.94,60.0-70.0
60.0,2351.0,0.0,-0.81,9.85,-1.47,2.77,0.31,27.94,60.0-70.0
60.0,2035.0,-0.12,0.24,9.38,0.18,0.82,0.29,27.97,60.0-70.0
60.0,2079.0,-0.37,-1.02,9.78,-1.71,0.71,-0.44,27.92,60.0-70.0
60.0,1819.0,-0.81,0.38,9.42,0.9,0.34,-0.24,27.92,60.0-70.0
60.0,2134.0,-0.3,-0.86,9.8,-1.3,2.48,-0.43,27.95,60.0-70.0
60.0,1582.0,-0.45,0.34,9.29,0.27,1.44,-0.4,27.94,60.0-70.0
60.0,1530.0,-0.35,-0.86,9.83,-1.32,1.18,-0.9,27.94,60.0-70.0
60.0,1583.0,-0.91,0.39,9.31,0.76,-0.11,-0.21,27.95,60.0-70.0
60.0,1815.0,-0.38,-1.04,10.0,-1.62,2.05,-0.23,27.93,60.0-70.0
60.0,1343.0,0.24,0.11,9.82,-0.01,0.6,0.24,27.95,60.0-70.0
60.0,1734.0,-0.5,-0.63,9.84,-1.2,0.45,-0.4,27.95,60.0-70.0
60.0,1467.0,-1.41,0.38,8.74,0.62,1.26,0.05,27.94,60.0-70.0
60.0,1718.0,0.36,-1.11,10.54,-1.67,2.24,-0.35,27.96,60.0-70.0
60.0,1373.0,1.19,-0.04,10.2,-0.25,-1.23,0.12,27.93,60.0-70.0
60.0,1402.0,-0.45,-0.64,9.61,-1.15,-0.56,-0.96,27.94,60.0-70.0
60.0,1533.0,-1.05,0.44,9.1,0.57,1.73,-0.38,27.95,60.0-70.0
60.0,1648.0,-0.11,-1.1,10.3,-1.55,2.19,-0.82,27.96,60.0-70.0
60.0,1241.0,1.63,-0.19,10.42,-0.63,-1.76,0.24,27.97,60.0-70.0
60.0,1360.0,-0.57,-0.33,9.51,-0.63,-0.71,-0.49,27.97,60.0-70.0
60.0,1563.0,-0.6,0.24,9.38,0.24,1.9,0.06,27.96,60.0-70.0
60.0,1279.0,-0.38,-0.9,10.04,-1.64,1.06,-0.47,27.92,60.0-70.0
60.0,1191.0,1.54,-0.01,10.42,-0.69,-2.46,0.75,27.94,60.0-70.0
60.0,1491.0,-0.94,0.09,9.42,0.04,0.19,-0.53,27.94,60.0-70.0
60.0,1075.0,0.35,-0.09,9.88,-0.3,-0.28,-0.21,27.95,60.0-70.0
60.0,765.0,-0.8,-0.96,9.58,-1.56,-0.21,-1.13,27.95,60.0-70.0
60.0,1199.0,0.65,-0.2,10.16,-1.0,-2.92,0.21,27.95,60.0-70.0
60.0,1075.0,-1.12,0.24,9.63,0.51,0.16,-0.85,27.95,60.0-70.0
60.0,887.0,1.38,-0.29,10.25,-0.65,-1.0,0.05,27.93,60.0-70.0
60.0,663.0,-0.88,-0.74,9.38,-1.23,-0.5,-0.78,27.94,60.0-70.0
60.0,1295.0,-0.14,0.07,9.73,-0.87,-2.42,1.04,27.95,60.0-70.0
60.0,1556.0,-1.17,0.63,9.65,1.17,1.08,-0.32,27.94,60.0-70.0
60.0,1074.0,2.08,-0.47,10.36,-1.32,-2.48,0.55,27.96,60.0-70.0
60.0,1066.0,-0.51,-0.52,9.57,-0.89,-0.69,-0.73,27.95,60.0-70.0
60.0,1518.0,-0.4,0.46,9.59,-0.37,-1.7,0.93,27.96,60.0-70.0
60.0,1125.0,-1.14,0.85,9.58,1.57,1.4,-0.75,27.96,60.0-70.0
60.0,1315.0,1.68,-0.36,10.35,-1.61,-4.19,0.32,27.94,60.0-70.0
60.0,1357.0,-0.87,0.12,9.37,0.15,-0.21,-0.76,27.94,60.0-70.0
60.0,1150.0,0.08,0.55,9.62,0.22,0.56,1.05,27.95,60.0-70.0
60.0,1443.0,-0.61,0.95,9.9,1.8,0.31,-0.14,27.96,60.0-70.0
60.0,829.0,0.42,0.07,9.91,-0.94,-2.98,1.1,27.93,60.0-70.0
60.0,1209.0,-0.96,0.54,9.49,1.03,1.01,-0.35,27.96,60.0-70.0
60.0,1456.0,1.23,0.32,10.54,0.5,-0.05,1.16,27.95,60.0-70.0
60.0,1296.0,-0.1,0.6,9.81,1.12,-1.37,-0.34,27.96,60.0-70.0
60.0,1390.0,0.11,0.56,9.68,0.21,-0.19,0.84,27.96,60.0-70.0
60.0,1807.0,-0.76,0.74,9.62,1.46,0.86,-0.69,27.96,60.0-70.0
60.0,1314.0,0.98,0.04,10.28,0.07,-0.45,0.79,27.96,60.0-70.0
60.0,1646.0,0.09,0.35,9.64,0.88,-0.53,-0.35,27.95,60.0-70.0
60.0,1697.0,0.47,0.55,9.97,0.33,0.11,1.14,27.93,60.0-70.0
60.0,2069.0,-0.6,0.8,9.72,1.22,0.18,-0.02,27.95,60.0-70.0
60.0,1962.0,0.02,-0.16,9.78,-0.74,0.16,1.13,27.95,60.0-70.0
60.0,1936.0,-0.8,0.49,9.06,0.74,0.98,0.17,27.95,60.0-70.0
60.0,1953.0,1.41,0.31,10.64,0.27,-0.94,1.27,27.95,60.0-70.0
60.0,2097.0,-0.2,0.65,9.73,1.11,-1.41,-0.17,27.93,60.0-70.0
60.0,1495.0,-0.8,-0.34,9.32,-0.97,1.09,0.26,27.94,60.0-70.0
60.0,1803.0,-1.03,0.31,9.05,0.47,1.4,-0.53,27.96,60.0-70.0
60.0,1728.0,1.61,-0.13,10.8,0.01,-1.37,0.64,27.96,60.0-70.0
60.0,1616.0,-0.77,0.43,9.19,0.85,-1.44,-0.27,27.95,60.0-70.0
60.0,1620.0,-0.94,-0.79,9.43,-1.27,3.0,-0.03,27.96,60.0-70.0
60.0,1755.0,-0.4,0.14,9.35,0.25,1.58,-0.12,27.96,60.0-70.0
60.0,1781.0,0.39,-0.38,9.92,-0.72,-1.53,1.04,27.95,60.0-70.0
60.0,1646.0,-1.77,0.17,8.64,0.45,1.04,-0.11,27.96,60.0-70.0
60.0,1646.0,-1.03,-1.04,9.48,-1.58,4.95,-0.6,27.95,60.0-70.0
60.0,1447.0,1.03,-0.16,10.38,-0.2,0.65,-0.32,27.96,60.0-70.0
60.0,1859.0,-0.61,-0.74,9.22,-1.5,-0.19,0.23,27.94,60.0-70.0
60.0,1427.0,-1.86,0.1,8.45,0.22,2.69,-0.5,27.95,60.0-70.0
60.0,1776.0,-0.62,-1.21,10.05,-1.68,4.11,-0.99,27.95,60.0-70.0
60.0,1723.0,1.37,-0.3,10.67,-0.89,-1.38,0.12,27.95,60.0-70.0
60.0,1681.0,-0.86,-1.04,9.25,-1.74,1.84,-0.02,27.95,60.0-70.0
60.0,1624.0,-0.78,-0.07,9.14,0.04,2.39,-0.02,27.95,60.0-70.0
60.0,1824.0,-0.03,-1.15,10.29,-1.82,1.26,-0.6,27.94,60.0-70.0
60.0,1729.0,1.29,-0.31,10.36,-1.32,-3.09,0.63,27.94,60.0-70.0
60.0,1771.0,-0.63,-1.14,9.7,-1.62,3.07,-0.47,27.94,60.0-70.0
60.0,1477.0,0.55,-0.35,9.92,-0.65,0.22,-0.24,27.95,60.0-70.0
60.0,1679.0,-0.17,-0.93,10.02,-1.64,-0.5,-1.19,27.94,60.0-70.0
60.0,1459.0,0.09,0.12,9.85,-1.03,-3.46,0.56,27.92,60.0-70.0
60.0,1315.0,-0.03,-1.49,10.36,-1.87,3.03,-1.24,27.95,60.0-70.0
60.0,1141.0,2.13,-0.39,10.64,-1.1,-3.18,0.23,27.95,60.0-70.0
60.0,1554.0,-0.95,-0.37,9.3,-0.71,-1.44,-0.6,27.94,60.0-70.0
60.0,1000.0,0.0,0.57,9.62,0.03,-1.41,1.24,27.95,60.0-70.0
60.0,1031.0,0.03,-1.09,10.22,-1.7,0.47,-0.63,27.94,60.0-70.0
60.0,1224.0,0.98,-0.16,10.06,-1.23,-3.59,0.85,27.93,60.0-70.0
60.0,1302.0,-1.25,0.39,9.4,0.53,0.24,-0.61,27.96,60.0-70.0
60.0,1167.0,0.81,0.71,10.13,0.65,-0.59,1.02,27.93,60.0-70.0
60.0,832.0,-0.94,-0.59,9.53,-1.04,0.39,-1.05,27.93,60.0-70.0
60.0,1090.0,0.13,0.19,9.72,-0.78,-1.93,0.52,27.95,60.0-70.0
60.0,781.0,-0.69,0.67,9.73,1.03,0.83,-0.69,27.93,60.0-70.0
60.0,720.0,1.09,0.68,10.4,0.9,-0.05,1.3,27.93,60.0-70.0
60.0,1174.0,-1.06,-0.46,9.62,-0.77,-0.54,-0.73,27.93,60.0-70.0
60.0,1056.0,0.04,0.62,9.79,-0.02,-1.34,1.19,27.94,60.0-70.0
60.0,628.0,-0.78,1.09,9.68,1.95,0.51,-0.05,27.93,60.0-70.0
60.0,605.0,1.47,0.33,10.71,0.8,-0.36,1.17,27.95,60.0-70.0
60.0,1181.0,-1.35,0.42,9.33,0.54,0.1,-0.53,27.96,60.0-70.0
60.0,967.0,0.51,0.83,10.28,0.77,-0.02,1.02,27.95,60.0-70.0
60.0,974.0,-0.15,1.13,10.05,1.92,-0.56,-0.18,27.94,60.0-70.0
60.0,1047.0,0.58,-0.08,10.07,-0.26,-0.89,0.73,27.93,60.0-70.0
60.0,1535.0,-0.85,0.66,9.63,1.14,0.3,-0.61,27.95,60.0-70.0
60.0,895.0,1.03,0.34,10.6,0.47,-0.51,1.16,27.95,60.0-70.0
60.0,1259.0,-0.31,0.94,9.77,1.41,-1.3,0.12,27.94,60.0-70.0
60.0,1398.0,-0.25,-0.26,9.51,-0.72,0.43,0.64,27.94,60.0-70.0
60.0,1651.0,-0.2,1.01,9.95,1.61,-0.5,-0.03,27.93,60.0-70.0
60.0,1775.0,0.89,0.26,10.27,0.32,-1.32,1.3,27.95,60.0-70.0
60.0,1594.0,-0.17,0.56,9.64,1.15,-1.17,-0.05,27.94,60.0-70.0
60.0,1715.0,-0.97,-0.86,9.37,-1.55,1.52,-0.21,27.93,60.0-70.0
60.0,1765.0,0.19,0.94,10.12,1.99,-0.19,-0.4,27.94,60.0-70.0
60.0,1489.0,0.44,-0.29,9.89,-0.43,-0.92,0.56,27.95,60.0-70.0
60.0,1833.0,-1.28,0.42,8.68,0.85,0.69,-0.2,27.96,60.0-70.0
60.0,2101.0,-0.62,-0.93,9.73,-1.15,3.82,-0.35,27.96,60.0-70.0
60.0,1535.0,0.03,0.73,9.82,1.22,-2.36,0.24,27.95,60.0-70.0
60.0,1535.0,-0.26,-0.59,9.62,-1.18,0.86,0.55,27.95,60.0-70.0
60.0,1875.0,-1.22,0.2,8.81,0.27,1.43,-0.18,27.96,60.0-70.0
60.0,1786.0,-0.49,-1.21,10.06,-1.73,2.81,-0.84,27.95,60.0-70.0
60.0,1727.0,-0.53,0.46,9.25,0.93,-0.34,-0.05,27.97,60.0-70.0
60.0,1509.0,-0.97,-0.94,9.29,-1.56,2.59,-0.46,27.96,60.0-70.0
60.0,1767.0,-0.33,-0.0,9.41,0.24,2.39,-0.46,27.97,60.0-70.0
60.0,1934.0,-0.24,-1.02,10.05,-1.49,1.7,-1.08,27.98,60.0-70.0
60.0,1221.0,-0.6,0.19,9.23,0.3,0.05,-0.12,27.98,60.0-70.0
60.0,1837.0,-0.86,-1.29,9.72,-1.97,2.3,-0.4,27.96,60.0-70.0
60.0,1915.0,0.28,-0.42,9.98,-0.89,0.08,0.14,27.96,60.0-70.0
60.0,1617.0,-1.18,-0.96,9.67,-1.5,0.88,-0.87,27.92,60.0-70.0
60.0,1728.0,-0.48,0.23,9.0,0.68,1.4,0.08,27.94,60.0-70.0
60.0,1707.0,-0.09,-1.34,10.01,-1.84,1.47,-0.79,27.95,60.0-70.0
60.0,1915.0,1.89,-0.48,10.4,-1.21,-2.02,0.17,27.96,60.0-70.0
60.0,1584.0,-1.07,-0.43,9.73,-0.75,-0.27,-1.02,27.95,60.0-70.0
60.0,1606.0,-0.27,-0.06,9.35,-0.01,1.81,-0.31,27.96,60.0-70.0
60.0,1871.0,0.07,-1.17,10.19,-1.88,0.43,-0.99,27.93,60.0-70.0
60.0,1453.0,1.28,-0.33,10.07,-1.5,-3.55,0.58,27.95,60.0-70.0
60.0,1441.0,-1.51,0.02,9.44,0.1,0.5,-0.52,27.97,60.0-70.0
60.0,1495.0,0.67,-0.23,10.07,-0.45,0.4,0.21,27.95,60.0-70.0
60.0,1277.0,-0.1,-0.71,10.08,-1.2,-0.28,-0.79,27.94,60.0-70.0
60.0,1093.0,1.06,0.17,9.75,-0.65,-3.4,0.98,27.94,60.0-70.0
60.0,1101.0,-1.44,0.49,9.16,1.09,1.18,-0.72,27.96,60.0-70.0
60.0,1361.0,1.39,-0.26,10.56,-1.04,-2.94,0.31,27.94,60.0-70.0
60.0,1500.0,-1.17,0.0,9.59,-0.02,0.1,-0.93,27.95,60.0-70.0
60.0,1020.0,0.2,0.6,9.49,0.04,-0.74,0.9,27.93,60.0-70.0
60.0,1111.0,-0.56,0.71,9.67,1.52,1.2,-0.56,27.96,60.0-70.0
60.0,1326.0,0.74,-0.08,10.06,-1.15,-3.49,0.79,27.96,60.0-70.0
60.0,969.0,-1.48,0.35,9.59,0.5,0.74,-0.46,27.95,60.0-70.0
60.0,1123.0,-0.03,0.79,9.62,0.45,0.85,1.31,27.95,60.0-70.0
60.0,1231.0,0.37,0.83,10.12,1.7,0.4,-0.15,27.95,60.0-70.0
60.0,1117.0,0.3,0.44,9.52,-0.46,-3.06,1.05,27.94,60.0-70.0
60.0,1338.0,-1.83,0.83,9.2,1.54,1.96,-0.49,27.95,60.0-70.0
60.0,875.0,0.83,0.46,10.56,0.93,1.59,0.89,27.95,60.0-70.0
60.0,1451.0,0.22,0.56,10.02,1.26,-0.98,-0.31,27.93,60.0-70.0
60.0,1226.0,0.57,0.66,9.73,0.47,-1.3,1.05,27.94,60.0-70.0
60.0,1157.0,-0.7,0.84,9.92,1.67,0.16,-0.27,27.94,60.0-70.0
60.0,1535.0,0.28,0.19,10.24,0.18,-0.54,1.25,27.96,60.0-70.0
60.0,1382.0,-0.55,0.56,9.5,1.17,0.36,0.14,27.95,60.0-70.0
60.0,1187.0,1.29,0.67,10.12,0.62,-1.2,1.4,27.95,60.0-70.0
60.0,1404.0,-0.17,0.85,9.72,1.57,-0.68,-0.17,27.95,60.0-70.0
60.0,998.0,0.04,-0.18,9.88,-0.46,-0.6,0.79,27.94,60.0-70.0
60.0,1625.0,-0.71,0.31,9.32,0.77,1.01,-0.23,27.94,60.0-70.0
60.0,1597.0,1.13,0.42,10.44,0.41,-1.17,1.05,27.94,60.0-70.0
60.0,1622.0,-0.3,0.72,9.58,1.46,-1.06,-0.31,27.95,60.0-70.0
60.0,2005.0,-0.23,-0.6,9.54,-1.0,1.38,0.18,27.98,60.0-70.0
60.0,1710.0,-0.8,0.18,9.03,0.51,1.35,-0.27,27.94,60.0-70.0
60.0,1617.0,0.41,-0.03,10.13,-0.02,-1.15,1.07,27.92,60.0-70.0
60.0,1878.0,-1.23,0.56,9.05,1.23,0.45,0.02,27.96,60.0-70.0
60.0,1823.0,-0.61,-0.69,9.49,-1.06,3.79,-0.08,27.97,60.0-70.0
60.0,1926.0,-0.16,0.29,9.4,0.56,1.98,0.02,27.97,60.0-70.0
60.0,1898.0,-0.1,-0.51,9.66,-1.04,-1.56,0.79,27.95,60.0-70.0
60.0,1599.0,-1.35,0.23,8.97,0.51,1.18,-0.24,27.95,60.0-70.0
60.0,1887.0,-0.3,-0.96,10.07,-1.49,3.14,-0.6,27.97,60.0-70.0
60.0,1509.0,0.65,-0.09,10.09,-0.45,-0.34,-0.14,27.96,60.0-70.0
60.0,1573.0,-0.4,-0.66,9.43,-1.21,1.18,0.15,27.97,60.0-70.0
60.0,1782.0,-0.96,0.04,9.07,0.24,1.73,-0.31,27.94,60.0-70.0
60.0,1794.0,-0.13,-1.3,10.31,-1.76,1.7,-0.75,27.94,60.0-70.0
60.0,1434.0,1.56,-0.45,10.48,-1.2,-2.86,0.34,27.95,60.0-70.0
60.0,1774.0,-0.51,-0.9,9.52,-1.33,3.5,-0.11,27.98,60.0-70.0
60.0,1584.0,0.07,-0.27,9.62,-0.26,1.29,-0.12,27.96,60.0-70.0
60.0,1808.0,0.1,-1.19,10.15,-1.81,0.07,-0.85,27.94,60.0-70.0
60.0,1580.0,1.06,-0.29,9.99,-1.29,-3.69,0.4,27.93,60.0-70.0
60.0,1688.0,-0.27,-1.28,9.98,-1.74,3.58,-0.92,27.97,60.0-70.0
60.0,1727.0,1.56,-0.37,10.58,-0.81,-1.08,-0.21,27.94,60.0-70.0
60.0,1348.0,-0.35,-0.73,9.69,-1.59,-1.47,-0.79,27.97,60.0-70.0
60.0,1589.0,-0.3,0.18,9.27,-0.83,-2.13,0.84,27.94,60.0-70.0
60.0,1664.0,0.16,-1.13,10.59,-1.74,1.72,-0.66,27.92,60.0-70.0
60.0,1533.0,1.77,-0.26,10.32,-1.15,-3.38,0.7,27.95,60.0-70.0
60.0,986.0,-1.38,-0.19,9.34,-0.54,0.11,-0.46,27.95,60.0-70.0
60.0,1187.0,0.1,-0.01,9.76,0.06,1.23,0.03,27.95,60.0-70.0
60.0,1136.0,-0.16,-0.82,10.22,-1.36,0.14,-0.81,27.95,60.0-70.0
60.0,983.0,1.24,-0.02,10.08,-0.86,-3.5,0.6,27.96,60.0-70.0
60.0,1140.0,-1.42,0.31,9.32,0.56,0.47,-0.76,27.96,60.0-70.0
60.0,1248.0,1.46,-0.2,10.55,-0.58,-1.43,-0.08,27.95,60.0-70.0
60.0,1231.0,-0.36,-0.47,9.83,-0.83,-0.82,-0.9,27.96,60.0-70.0
60.0,732.0,0.2,0.37,9.62,-0.45,-2.59,0.99,27.95,60.0-70.0
60.0,1075.0,-0.78,0.8,9.78,1.47,0.71,-0.23,27.95,60.0-70.0
60.0,1173.0,1.3,-0.27,10.24,-1.12,-3.36,0.66,27.95,60.0-70.0
60.0,1214.0,-1.2,0.11,9.43,-0.02,0.21,-0.53,27.95,60.0-70.0
60.0,954.0,0.26,0.66,9.79,0.28,-0.25,1.11,27.94,60.0-70.0
60.0,1328.0,-0.64,0.95,9.77,1.69,0.34,-0.35,27.95,60.0-70.0
60.0,1535.0,0.2,-0.05,9.97,-0.46,-0.39,1.43,27.41,60.0-70.0
60.0,1727.0,0.13,-0.31,9.85,-0.54,0.16,1.07,27.42,60.0-70.0
60.0,1456.0,-0.33,0.19,9.76,0.24,0.59,0.7,27.4,60.0-70.0
60.0,2027.0,0.05,0.34,9.8,0.39,-0.16,0.84,27.42,60.0-70.0
60.0,2107.0,0.11,0.13,9.76,-0.19,0.37,1.39,27.39,60.0-70.0
60.0,1423.0,-0.33,0.11,9.87,0.24,0.53,0.08,27.41,60.0-70.0
60.0,1875.0,-0.04,-0.19,9.91,-0.17,-0.05,-0.5,27.4,60.0-70.0
60.0,1083.0,-0.01,0.11,9.88,-0.1,-0.24,-0.02,27.43,60.0-70.0
60.0,755.0,-0.33,-0.33,9.64,-0.16,0.34,-1.08,27.41,60.0-70.0
60.0,1106.0,0.06,-0.02,9.82,0.07,0.19,-1.17,27.41,60.0-70.0
60.0,1818.0,0.0,0.33,9.71,0.35,-0.05,-0.03,27.42,60.0-70.0
60.0,1194.0,-0.52,-0.46,9.6,-0.36,1.12,0.17,27.41,60.0-70.0
60.0,1856.0,-0.11,0.15,9.7,-0.05,-0.01,0.35,27.41,60.0-70.0
60.0,1402.0,-0.06,0.39,9.82,0.16,0.89,1.46,27.39,60.0-70.0
60.0,2677.0,-0.69,-0.66,9.48,-0.86,0.88,0.58,27.38,60.0-70.0
60.0,1806.0,-0.14,0.12,9.62,-0.43,0.33,0.06,27.39,60.0-70.0
60.0,2109.0,0.2,0.36,10.1,0.15,1.24,0.47,27.4,60.0-70.0
60.0,1554.0,-0.19,0.34,9.84,0.7,-1.18,-0.87,27.39,60.0-70.0
60.0,976.0,0.37,-0.16,9.84,-0.4,0.45,-1.02,27.41,60.0-70.0
60.0,1341.0,-0.18,0.04,9.93,-0.08,0.01,-0.14,27.41,60.0-70.0
60.0,1168.0,-0.3,1.01,9.35,1.96,-0.15,-0.21,27.42,60.0-70.0
60.0,903.0,0.49,0.13,10.24,0.06,0.74,0.76,27.4,60.0-70.0
60.0,807.0,-1.04,-0.42,9.52,-0.45,0.72,0.41,27.4,60.0-70.0
60.0,1101.0,0.43,0.41,9.89,0.56,-1.15,0.9,27.39,60.0-70.0
60.0,1469.0,-0.04,0.11,10.03,-0.07,0.95,0.93,27.4,60.0-70.0
60.0,1821.0,-0.44,1.19,9.49,1.73,-0.24,0.27,27.42,60.0-70.0
60.0,1317.0,1.14,-0.63,10.27,-1.42,-1.92,-0.24,27.4,60.0-70.0
60.0,1121.0,-0.98,-0.72,9.54,-0.8,0.57,-1.07,27.43,60.0-70.0
60.0,1168.0,0.48,0.13,9.7,-0.01,-1.05,-0.66,27.41,60.0-70.0
60.0,2467.0,-0.93,-0.33,9.67,-0.13,1.66,-0.73,27.4,60.0-70.0
60.0,2373.0,-0.69,0.07,9.58,0.65,-0.66,-0.69,27.4,60.0-70.0
60.0,1489.0,0.19,0.17,9.64,-0.51,0.98,0.93,27.39,60.0-70.0
60.0,1136.0,-1.28,-0.47,9.58,-0.31,1.18,-0.37,27.39,60.0-70.0
60.0,1422.0,1.82,-0.43,10.75,-1.39,-3.0,0.98,27.4,60.0-70.0
60.0,784.0,-1.65,-0.12,8.95,-0.23,2.49,0.47,27.42,60.0-70.0
60.0,1136.0,0.68,0.9,10.14,1.49,0.45,0.66,27.39,60.0-70.0
60.0,1585.0,0.55,0.12,10.18,-0.46,-0.24,0.37,27.39,60.0-70.0
60.0,1712.0,-0.89,1.21,9.14,1.87,0.11,-0.12,27.41,60.0-70.0
60.0,1138.0,1.24,-0.05,10.43,-1.03,-2.33,-0.0,27.41,60.0-70.0
60.0,882.0,-1.93,-0.53,9.28,-0.81,0.85,-1.77,27.41,60.0-70.0
60.0,1361.0,1.8,-0.53,10.88,-1.53,-3.35,0.2,27.39,60.0-70.0
60.0,1439.0,-1.53,-0.84,9.57,-1.44,-1.09,-0.81,27.41,60.0-70.0
60.0,1488.0,0.22,0.6,10.02,1.0,-0.18,1.01,27.4,60.0-70.0
60.0,1814.0,-0.65,-0.08,9.26,-0.31,0.22,0.92,27.41,60.0-70.0
60.0,1910.0,-0.22,0.85,9.72,1.26,0.69,0.9,27.39,60.0-70.0
60.0,1837.0,-0.26,-0.22,9.59,-0.49,0.79,0.4,27.41,60.0-70.0
60.0,1667.0,-0.16,0.48,10.13,0.86,0.68,-0.75,27.39,60.0-70.0
60.0,1348.0,0.38,0.19,9.77,-0.48,-0.6,0.41,27.39,60.0-70.0
60.0,838.0,-0.62,0.44,9.8,0.83,1.4,-1.28,27.39,60.0-70.0
60.0,530.0,0.42,0.21,9.97,-0.39,0.4,0.53,27.42,60.0-70.0
60.0,807.0,-0.39,-0.78,10.04,-0.45,-1.15,-1.11,27.4,60.0-70.0
60.0,1904.0,0.4,-0.46,9.85,-1.07,-2.31,0.35,27.4,60.0-70.0
60.0,1473.0,-0.04,-0.7,10.36,-0.13,-1.09,-0.5,27.41,60.0-70.0
60.0,1776.0,0.7,-0.35,10.0,-0.98,-2.88,0.78,27.41,60.0-70.0
60.0,2458.0,-0.68,-0.36,9.62,-0.78,2.04,0.55,27.41,60.0-70.0
60.0,2470.0,0.05,0.6,9.54,0.59,0.71,0.55,27.39,60.0-70.0
60.0,2193.0,-1.1,-0.44,9.3,-0.54,2.69,-0.6,27.38,60.0-70.0
60.0,1806.0,0.32,0.31,9.6,0.44,0.98,-0.24,27.39,60.0-70.0
60.0,2156.0,0.47,-0.15,9.8,-0.62,1.23,0.23,27.4,60.0-70.0
60.0,1637.0,-0.55,0.61,9.58,0.88,0.72,-0.32,27.42,60.0-70.0
60.0,910.0,0.44,-0.23,9.98,-0.63,2.37,0.76,27.41,60.0-70.0
60.0,368.0,-0.49,0.9,9.53,0.9,0.92,0.9,27.39,60.0-70.0
60.0,0.0,0.81,0.3,10.29,-0.26,-1.98,1.34,27.38,60.0-70.0
60.0,178.0,0.0,0.6,10.19,1.22,-1.34,-0.03,27.41,60.0-70.0
60.0,581.0,0.83,0.37,10.23,-0.07,-1.95,1.27,27.39,60.0-70.0
60.0,799.0,0.04,0.9,10.14,1.61,-1.81,-0.2,27.39,60.0-70.0
60.0,752.0,0.63,-0.41,10.03,-1.06,-2.27,-0.15,27.41,60.0-70.0
60.0,1522.0,-1.28,-0.27,9.55,0.19,-0.65,-1.94,27.41,60.0-70.0
60.0,1630.0,0.79,-0.14,10.38,-0.54,-1.9,-0.18,27.4,60.0-70.0
60.0,2496.0,-1.0,0.35,9.6,1.19,-0.82,-1.25,27.41,60.0-70.0
60.0,2111.0,0.66,-0.53,9.69,-1.38,-0.88,0.5,27.39,60.0-70.0
60.0,1808.0,-0.97,-0.96,9.42,-1.01,1.88,-0.7,27.4,60.0-70.0
60.0,2225.0,0.3,-0.64,9.8,-1.64,-0.92,0.96,27.4,60.0-70.0
60.0,2038.0,-1.21,-0.56,9.7,-0.42,0.42,-0.64,27.41,60.0-70.0
60.0,2192.0,0.55,0.21,9.81,-0.2,0.98,0.84,27.4,60.0-70.0
60.0,2293.0,-1.0,-0.72,9.28,-1.1,2.98,-0.66,27.4,60.0-70.0
60.0,2071.0,0.57,-0.31,9.55,-1.33,-0.05,-0.05,27.42,60.0-70.0
60.0,2170.0,-0.28,-1.0,9.84,-1.09,1.91,-1.62,27.42,60.0-70.0
60.0,1239.0,-0.69,0.9,9.26,1.15,1.55,-0.11,27.39,60.0-70.0
60.0,1776.0,-0.95,-0.59,9.57,-1.03,2.6,-0.34,27.4,60.0-70.0
60.0,2045.0,0.62,0.17,9.97,-0.2,0.86,0.66,27.38,60.0-70.0
60.0,1343.0,-1.06,-0.79,9.35,-1.06,3.14,-0.27,27.41,60.0-70.0
60.0,552.0,-0.46,0.83,9.44,1.32,-1.27,0.69,27.4,60.0-70.0
60.0,736.0,-0.25,-0.5,9.89,-0.66,1.24,0.47,27.4,60.0-70.0
60.0,448.0,-0.24,0.59,9.55,0.76,1.12,0.32,27.41,60.0-70.0
60.0,538.0,-1.05,-0.74,9.59,-1.06,1.95,-0.7,27.41,60.0-70.0
60.0,523.0,0.26,0.78,10.0,1.6,-1.69,-0.52,27.39,60.0-70.0
60.0,943.0,0.27,-0.33,10.02,-0.42,-0.15,-0.11,27.39,60.0-70.0
60.0,823.0,-0.49,0.69,9.47,1.02,-0.57,-0.18,27.38,60.0-70.0
60.0,594.0,-0.6,-0.64,9.7,-1.0,1.56,-0.21,27.4,60.0-70.0
60.0,1393.0,-0.01,1.0,10.01,1.9,-0.76,0.11,27.37,60.0-70.0
60.0,935.0,0.22,0.13,9.69,-0.07,0.14,1.34,27.4,60.0-70.0
60.0,1298.0,-0.65,1.16,9.31,1.8,0.02,0.89,27.39,60.0-70.0
60.0,832.0,0.24,-0.26,9.95,-0.52,1.72,0.76,27.39,60.0-70.0
60.0,1297.0,-0.32,0.97,10.04,1.75,-1.09,-0.27,27.39,60.0-70.0
60.0,1211.0,0.68,0.46,10.21,0.38,-1.23,0.72,27.42,60.0-70.0
60.0,930.0,0.14,1.04,10.08,1.84,-2.14,-0.34,27.4,60.0-70.0
60.0,679.0,-0.02,-0.03,9.75,-0.1,0.65,0.11,27.39,60.0-70.0
60.0,583.0,-0.38,0.59,10.01,1.25,-1.58,-1.07,27.4,60.0-70.0
60.0,446.0,0.72,0.37,10.17,0.19,-1.92,0.96,27.41,60.0-70.0
60.0,368.0,0.06,1.12,10.08,2.25,-1.93,0.23,27.39,60.0-70.0
60.0,424.0,0.64,0.03,10.13,0.09,-0.69,1.25,27.4,60.0-70.0
60.0,1157.0,-1.02,0.07,9.53,0.33,-0.39,-0.49,27.4,60.0-70.0
60.0,1054.0,0.79,0.02,10.44,-0.37,-1.63,1.04,27.38,60.0-70.0
60.0,1572.0,-0.05,0.85,10.14,1.72,-1.0,-0.44,27.39,60.0-70.0
60.0,1765.0,0.53,-0.66,9.77,-1.96,-1.63,0.24,27.37,60.0-70.0
60.0,1775.0,-1.27,-0.34,9.32,-0.39,-0.16,-1.48,27.39,60.0-70.0
60.0,2047.0,0.75,-0.22,10.29,-0.75,-0.44,0.09,27.42,60.0-70.0
60.0,1781.0,-0.94,0.68,9.62,1.47,-0.11,-0.87,27.39,60.0-70.0
60.0,1967.0,0.68,-0.46,9.77,-1.65,-1.46,0.55,27.39,60.0-70.0
60.0,1719.0,-1.09,-0.49,9.52,-0.48,1.06,-0.84,27.39,60.0-70.0
60.0,1086.0,0.84,-0.23,10.25,-1.03,-0.77,1.05,27.39,60.0-70.0
60.0,1343.0,-1.07,0.4,9.37,0.79,-0.15,-0.27,27.39,60.0-70.0
60.0,1411.0,0.96,-0.49,10.08,-1.71,-1.81,0.85,27.4,60.0-70.0
60.0,1393.0,-1.11,-0.91,9.56,-1.12,0.89,-1.27,27.4,60.0-70.0
60.0,1392.0,0.64,-0.53,10.06,-1.61,-1.26,0.15,27.39,60.0-70.0
60.0,1823.0,-1.48,0.19,9.18,0.13,-0.63,-1.28,27.38,60.0-70.0
60.0,2594.0,1.55,-0.39,10.2,-1.2,-0.34,0.06,27.38,60.0-70.0
60.0,2055.0,-0.66,-0.84,9.55,-1.04,1.3,-1.25,27.4,60.0-70.0
60.0,2381.0,0.33,-0.47,9.53,-1.5,-0.71,0.61,27.39,60.0-70.0
60.0,2479.0,-0.8,-0.17,9.65,-0.14,-0.15,-0.73,27.4,60.0-70.0
60.0,2399.0,0.49,-0.36,9.86,-1.01,-0.1,0.79,27.4,60.0-70.0
60.0,1719.0,-0.6,-0.94,9.76,-1.01,1.98,-0.73,27.4,60.0-70.0
60.0,1919.0,0.46,-0.41,9.7,-1.45,-1.08,0.64,27.39,60.0-70.0
60.0,1887.0,-1.13,-0.16,9.46,-0.08,0.28,-1.1,27.41,60.0-70.0
60.0,1803.0,0.96,-0.01,10.09,-0.33,0.22,0.17,27.4,60.0-70.0
60.0,1619.0,-0.78,-0.75,9.64,-0.77,1.76,-1.24,27.39,60.0-70.0
60.0,1723.0,0.67,-0.36,9.79,-1.32,-1.08,0.2,27.41,60.0-70.0
60.0,2240.0,-0.71,-0.47,9.74,-0.52,0.1,-1.01,27.41,60.0-70.0
60.0,2236.0,0.39,0.34,9.96,0.24,1.37,0.52,27.41,60.0-70.0
60.0,2426.0,-0.8,-0.7,9.62,-0.91,2.45,-0.38,27.42,60.0-70.0
60.0,2480.0,0.78,-0.33,9.87,-1.3,-0.68,0.89,27.41,60.0-70.0
60.0,2303.0,-0.54,-0.76,9.73,-0.84,1.01,-0.89,27.41,60.0-70.0
60.0,2294.0,0.2,0.2,9.67,0.16,0.53,0.46,27.4,60.0-70.0
60.0,2294.0,-0.74,-1.02,9.76,-1.12,2.16,-1.01,27.41,60.0-70.0
60.0,2254.0,1.06,-0.52,10.15,-1.49,-2.07,0.11,27.4,60.0-70.0
60.0,1965.0,-1.41,-0.92,9.29,-0.95,1.27,-1.59,27.39,60.0-70.0
60.0,1855.0,0.33,0.75,9.72,1.03,1.3,0.12,27.41,60.0-70.0
60.0,2149.0,-0.52,-0.71,9.62,-0.83,2.1,-0.44,27.4,60.0-70.0
60.0,1834.0,1.55,-0.23,10.02,-0.89,-0.57,0.79,27.41,60.0-70.0
60.0,1791.0,-0.18,-0.93,9.66,-1.18,1.06,-0.5,27.42,60.0-70.0
60.0,1693.0,-1.16,0.99,9.09,1.15,1.58,0.76,27.39,60.0-70.0
60.0,2087.0,-0.68,-0.53,9.82,-0.75,3.17,-0.02,27.4,60.0-70.0
60.0,1907.0,0.69,-0.1,10.07,-0.55,0.21,0.38,27.41,60.0-70.0
60.0,1843.0,-0.36,-0.83,9.67,-0.87,2.2,-1.22,27.4,60.0-70.0
60.0,2062.0,-0.74,0.91,9.03,1.49,0.18,-0.09,27.4,60.0-70.0
60.0,1984.0,-0.37,-0.75,10.02,-0.74,2.04,-0.61,27.4,60.0-70.0
60.0,1881.0,0.7,-0.15,10.09,-0.26,-0.04,0.09,27.42,60.0-70.0
60.0,1904.0,-0.57,-1.07,9.76,-1.09,1.98,-0.96,27.39,60.0-70.0
60.0,1741.0,-0.95,1.02,8.97,1.57,0.13,0.58,27.39,60.0-70.0
60.0,1670.0,-0.64,-0.7,9.74,-0.81,2.86,0.17,27.39,60.0-70.0
60.0,1061.0,0.92,0.26,10.21,0.3,0.83,0.7,27.39,60.0-70.0
60.0,1166.0,-0.59,-0.69,9.66,-1.0,1.23,-0.46,27.4,60.0-70.0
60.0,1234.0,-0.57,1.04,9.39,1.47,0.22,0.26,27.4,60.0-70.0
60.0,1232.0,-0.15,-0.42,10.1,-0.68,1.9,-0.18,27.38,60.0-70.0
60.0,1167.0,0.07,0.3,9.69,0.09,0.43,0.06,27.41,60.0-70.0
60.0,1920.0,-0.69,-0.88,9.69,-1.07,2.54,-1.14,27.4,60.0-70.0
60.0,1511.0,-0.77,1.09,9.2,1.6,-0.98,0.21,27.41,60.0-70.0
60.0,2123.0,-0.65,-0.4,9.59,-0.51,2.71,0.09,27.39,60.0-70.0
60.0,1930.0,-0.15,0.42,9.59,0.68,2.1,0.58,27.38,60.0-70.0
60.0,2135.0,-0.84,-0.88,9.65,-0.95,2.85,-0.46,27.4,60.0-70.0
60.0,1429.0,-0.64,1.14,9.28,1.9,-1.17,0.67,27.38,60.0-70.0
60.0,1627.0,-0.69,-0.28,9.44,-0.23,2.62,0.38,27.4,60.0-70.0
60.0,841.0,-0.57,0.5,9.35,0.88,2.69,0.15,27.37,60.0-70.0
60.0,1351.0,-0.64,-0.87,9.79,-0.8,4.05,-1.17,27.4,60.0-70.0
60.0,751.0,-0.36,0.96,9.41,1.54,-2.75,0.03,27.38,60.0-70.0
60.0,1172.0,-0.86,-0.43,9.29,-0.63,1.91,-0.23,27.39,60.0-70.0
60.0,972.0,-0.55,0.33,9.44,0.5,1.76,-0.0,27.42,60.0-70.0
60.0,1610.0,-0.74,-0.95,9.97,-1.18,2.86,-0.7,27.4,60.0-70.0
60.0,864.0,-0.32,1.14,9.38,1.81,-1.23,0.56,27.4,60.0-70.0
60.0,1924.0,-0.01,-0.41,9.76,-0.55,1.41,0.61,27.37,60.0-70.0
60.0,1616.0,-0.42,0.46,9.23,0.64,1.14,0.72,27.41,60.0-70.0
60.0,2164.0,-1.0,-0.81,9.43,-0.78,3.46,-0.55,27.38,60.0-70.0
60.0,1057.0,-0.14,1.18,9.82,1.78,-1.92,0.38,27.38,60.0-70.0
60.0,1566.0,-0.52,-0.3,9.49,-0.54,1.44,0.02,27.38,60.0-70.0
60.0,797.0,-0.8,0.55,9.07,0.9,2.57,-0.12,27.42,60.0-70.0
60.0,939.0,-0.77,-0.93,9.86,-0.98,3.2,-1.07,27.38,60.0-70.0
60.0,645.0,-0.54,1.23,9.31,2.1,-1.44,0.21,27.4,60.0-70.0
60.0,646.0,-0.41,-0.2,9.61,-0.13,2.07,0.37,27.36,60.0-70.0
60.0,734.0,-0.24,0.69,9.44,1.08,1.72,0.69,27.38,60.0-70.0
60.0,410.0,-0.91,-0.7,9.54,-0.87,2.92,-0.24,27.39,60.0-70.0
60.0,1874.0,-0.57,1.3,9.6,1.98,-2.11,0.66,27.4,60.0-70.0
60.0,528.0,-0.3,-0.18,9.77,-0.34,1.52,0.49,27.38,60.0-70.0
60.0,1202.0,-0.94,0.78,9.0,1.17,2.43,0.14,27.39,60.0-70.0
60.0,1650.0,-0.8,-0.74,9.71,-0.8,3.38,-0.92,27.39,60.0-70.0
60.0,879.0,-0.22,0.98,9.55,1.72,-2.59,-0.11,27.38,60.0-70.0
60.0,1343.0,-0.25,-0.48,9.72,-0.43,0.75,-0.12,27.4,60.0-70.0
60.0,1082.0,-0.52,0.6,9.28,1.11,1.12,0.17,27.4,60.0-70.0
60.0,795.0,-1.36,-0.95,9.51,-1.06,2.8,-0.56,27.39,60.0-70.0
60.0,661.0,0.2,1.1,9.91,1.92,-1.75,0.64,27.39,60.0-70.0
60.0,928.0,0.05,-0.24,9.61,-0.4,1.0,0.73,27.38,60.0-70.0
60.0,493.0,-0.01,0.69,9.36,1.11,1.64,0.67,27.37,60.0-70.0
60.0,596.0,-0.7,-0.89,9.57,-1.15,2.11,-0.44,27.39,60.0-70.0
60.0,849.0,-0.52,1.33,9.65,1.98,-1.0,0.15,27.42,60.0-70.0
60.0,687.0,-0.07,-0.12,9.84,-0.33,1.53,0.14,27.38,60.0-70.0
60.0,816.0,-0.63,0.77,9.19,1.12,1.93,0.05,27.4,60.0-70.0
60.0,960.0,-1.22,-0.76,9.42,-0.91,3.21,-0.72,27.38,60.0-70.0
60.0,957.0,-0.09,0.97,9.83,1.84,-2.28,0.03,27.39,60.0-70.0
60.0,765.0,0.53,-0.38,10.11,-0.42,0.68,0.53,27.39,60.0-70.0
60.0,1154.0,0.13,0.7,9.63,1.02,-0.04,0.61,27.39,60.0-70.0
60.0,1058.0,-0.81,-0.98,9.57,-1.29,1.47,-0.15,27.39,60.0-70.0
60.0,1135.0,-0.1,1.29,9.95,2.33,-1.29,0.6,27.38,60.0-70.0
60.0,769.0,-0.13,-0.03,9.72,-0.11,0.82,0.61,27.39,60.0-70.0
60.0,353.0,-0.81,0.84,9.05,1.32,1.85,-0.03,27.39,60.0-70.0
60.0,666.0,-0.8,-0.77,9.6,-0.78,3.15,-0.79,27.39,60.0-70.0
60.0,1159.0,-0.2,1.24,9.59,2.15,-1.5,-0.15,27.39,60.0-70.0
60.0,530.0,0.11,-0.27,9.87,-0.33,0.51,0.31,27.4,60.0-70.0
60.0,549.0,-0.61,0.69,9.25,1.12,0.71,0.31,27.39,60.0-70.0
60.0,1366.0,-0.7,-0.83,9.74,-1.13,2.74,-0.09,27.39,60.0-70.0
60.0,810.0,-0.34,1.27,9.67,2.28,-1.4,0.5,27.39,60.0-70.0
60.0,256.0,0.04,0.03,9.73,-0.01,0.66,1.05,27.39,60.0-70.0
60.0,2027.0,-0.76,1.02,9.04,1.75,1.29,0.52,27.39,60.0-70.0
60.0,1463.0,-0.79,-0.64,9.67,-0.68,3.01,-0.34,27.37,60.0-70.0
60.0,192.0,0.19,0.92,10.06,1.93,-2.28,-0.27,27.37,60.0-70.0
60.0,1031.0,-0.18,-0.3,9.74,-0.46,-0.5,0.15,27.36,60.0-70.0
60.0,445.0,-1.07,0.83,9.07,1.32,0.65,-0.14,27.39,60.0-70.0
60.0,1104.0,-0.74,-0.7,9.8,-0.75,2.91,-0.52,27.37,60.0-70.0
60.0,639.0,0.46,0.89,10.05,1.8,-2.08,0.08,27.39,60.0-70.0
60.0,800.0,0.17,-0.42,9.73,-0.72,-1.03,0.78,27.39,60.0-70.0
60.0,633.0,-1.28,0.71,8.91,1.03,0.36,0.44,27.39,60.0-70.0
60.0,1120.0,-1.1,-0.82,9.61,-1.09,2.65,-0.14,27.37,60.0-70.0
60.0,1104.0,0.35,0.98,10.07,1.76,-1.5,0.23,27.37,60.0-70.0
60.0,1654.0,0.37,-0.09,9.72,-0.28,0.01,0.73,27.4,60.0-70.0
60.0,1612.0,-0.69,0.91,9.04,1.34,0.07,0.17,27.4,60.0-70.0
60.0,1534.0,-1.0,-0.76,9.37,-0.95,2.85,-0.47,27.4,60.0-70.0
60.0,1439.0,0.37,1.04,10.36,2.01,-1.53,-0.23,27.38,60.0-70.0
60.0,1147.0,-0.06,-0.01,9.63,-0.16,-0.02,0.67,27.39,60.0-70.0
60.0,818.0,-1.21,0.99,8.76,1.44,0.98,0.32,27.39,60.0-70.0
60.0,739.0,-0.48,-0.59,9.84,-0.51,4.1,-0.02,27.39,60.0-70.0
60.0,576.0,0.15,0.93,10.08,1.69,-3.26,0.29,27.37,60.0-70.0
60.0,524.0,-0.24,-0.16,9.57,-0.45,-0.62,0.98,27.37,60.0-70.0
60.0,623.0,-0.93,0.74,9.24,1.14,0.08,0.17,27.38,60.0-70.0
60.0,649.0,-0.6,-0.53,9.72,-0.58,3.62,-0.35,27.4,60.0-70.0
60.0,773.0,0.14,0.9,9.94,1.61,-3.0,-0.29,27.36,60.0-70.0
60.0,1175.0,-0.26,-0.29,9.44,-0.46,-0.54,0.34,27.37,60.0-70.0
60.0,624.0,-1.11,0.82,9.12,1.37,0.18,-0.18,27.38,60.0-70.0
60.0,1170.0,-0.51,-0.52,9.78,-0.49,3.0,-0.26,27.4,60.0-70.0
60.0,1435.0,0.06,0.8,10.0,1.51,-2.24,-0.14,27.41,60.0-70.0
60.0,1134.0,0.18,-0.21,9.58,-0.57,-0.56,0.89,27.38,60.0-70.0
60.0,1223.0,-0.73,0.85,9.23,1.28,-0.34,0.43,27.38,60.0-70.0
60.0,1511.0,-0.82,-0.64,9.57,-0.78,2.48,0.03,27.39,60.0-70.0
60.0,1235.0,0.3,0.99,10.18,1.75,-1.26,0.02,27.38,60.0-70.0
60.0,896.0,0.57,-0.13,9.94,-0.46,-0.83,0.7,27.4,60.0-70.0
60.0,599.0,-0.9,0.93,9.0,1.26,-0.31,0.02,27.38,60.0-70.0
60.0,1118.0,-0.91,-0.7,9.38,-0.98,2.98,-0.44,27.38,60.0-70.0
60.0,1168.0,0.45,0.95,10.42,1.84,-1.49,-0.37,27.39,60.0-70.0
60.0,1071.0,0.67,-0.3,10.02,-0.68,-1.11,0.58,27.37,60.0-70.0
60.0,1293.0,-0.63,0.59,9.13,0.9,-0.44,0.08,27.38,60.0-70.0
60.0,1360.0,-0.34,-0.94,9.73,-1.21,2.48,0.08,27.4,60.0-70.0
60.0,1744.0,-0.51,1.03,9.78,1.92,-0.83,0.21,27.38,60.0-70.0
60.0,1723.0,-0.12,0.03,9.71,-0.14,0.68,0.99,27.39,60.0-70.0
60.0,1890.0,-0.44,1.05,9.3,1.72,1.27,0.43,27.41,60.0-70.0
60.0,1107.0,-0.09,-0.36,9.65,-0.52,2.97,0.09,27.39,60.0-70.0
60.0,976.0,-0.64,1.13,9.8,1.89,-1.72,-0.2,27.39,60.0-70.0
60.0,511.0,0.03,0.11,10.0,-0.02,-0.05,0.69,27.39,60.0-70.0
60.0,705.0,-0.52,1.01,9.65,1.49,-0.19,0.08,27.39,60.0-70.0
60.0,455.0,-0.84,-0.58,9.5,-1.01,2.48,-0.14,27.39,60.0-70.0
60.0,494.0,0.28,0.98,10.24,2.09,-1.78,-0.2,27.38,60.0-70.0
60.0,592.0,0.45,0.03,9.89,-0.01,-1.43,1.04,27.37,60.0-70.0
60.0,976.0,-0.28,0.87,9.48,1.55,-0.69,0.4,27.37,60.0-70.0
60.0,1241.0,-0.45,-0.78,9.67,-1.01,1.3,0.15,27.37,60.0-70.0
60.0,1146.0,-0.12,1.19,10.21,2.28,-0.74,0.05,27.37,60.0-70.0
60.0,1044.0,0.15,0.29,9.8,0.18,-0.28,0.93,27.39,60.0-70.0
60.0,1721.0,-0.47,1.12,9.43,1.93,0.1,0.12,27.39,60.0-70.0
60.0,1331.0,-0.32,-0.44,9.53,-0.55,2.34,-0.08,27.37,60.0-70.0
60.0,1216.0,0.03,1.21,10.22,2.19,-1.27,-0.27,27.38,60.0-70.0
60.0,815.0,0.63,0.15,10.22,0.03,-1.14,0.92,27.39,60.0-70.0
60.0,843.0,-0.7,1.13,9.38,1.73,-0.71,0.34,27.38,60.0-70.0
60.0,0.0,-0.55,-0.39,9.6,-0.68,2.39,0.43,27.38,60.0-70.0
60.0,213.0,0.32,1.02,10.35,1.99,-1.87,-0.09,27.4,60.0-70.0
60.0,126.0,0.6,0.1,10.09,-0.02,-1.95,1.07,27.38,60.0-70.0
60.0,701.0,-0.35,0.92,9.55,1.64,-1.52,0.14,27.4,60.0-70.0
60.0,1311.0,0.02,-0.53,9.91,-0.52,1.53,0.09,27.36,60.0-70.0
