Speed,Voice,Acceleration X,Acceleration Y,Acceleration Z,Gyro X,Gyro Y,Gyro Z,Temperature,Speed_Range
60.0,912.0,0.17,0.02,9.92,0.39,-1.22,0.56,17.82,60.0-70.0
60.0,1293.0,0.22,0.0,9.92,0.21,0.12,0.51,17.84,60.0-70.0
60.0,1444.0,-0.28,0.53,9.49,0.57,1.31,-0.42,17.82,60.0-70.0
60.0,1577.0,-0.36,-0.12,9.79,0.31,-0.4,-1.75,17.82,60.0-70.0
60.0,1426.0,-0.09,-0.12,9.77,0.68,-0.61,-0.94,17.8,60.0-70.0
60.0,1533.0,-0.08,-0.13,9.74,0.36,0.84,-0.54,17.83,60.0-70.0
60.0,1341.0,-0.37,0.53,9.55,0.41,1.24,-0.66,17.83,60.0-70.0
60.0,1744.0,-0.16,-0.02,9.69,0.18,-0.96,0.19,17.82,60.0-70.0
60.0,1510.0,0.06,0.08,10.02,0.18,-0.2,2.04,17.82,60.0-70.0
60.0,1426.0,-0.06,0.22,9.56,-0.01,1.34,1.24,17.84,60.0-70.0
60.0,1519.0,-0.62,-0.31,9.48,-0.48,1.24,-0.25,17.84,60.0-70.0
60.0,1210.0,0.24,-0.1,10.19,0.09,-1.6,0.48,17.84,60.0-70.0
60.0,1651.0,0.14,0.32,10.21,0.56,0.43,0.11,17.81,60.0-70.0
60.0,1647.0,-0.69,0.18,9.7,0.13,1.05,-1.84,17.82,60.0-70.0
60.0,1301.0,-0.06,-0.32,9.82,0.38,-1.89,-1.27,17.83,60.0-70.0
60.0,1377.0,0.16,0.19,9.87,0.33,0.44,0.01,17.83,60.0-70.0
60.0,1354.0,-0.75,0.53,9.49,0.35,1.01,-0.4,17.82,60.0-70.0
60.0,981.0,0.21,-0.01,9.94,0.5,-2.44,0.98,17.84,60.0-70.0
60.0,827.0,0.28,-0.42,9.91,-0.54,0.9,1.12,17.83,60.0-70.0
60.0,870.0,-0.7,0.22,9.61,0.18,2.23,0.08,17.84,60.0-70.0
60.0,1217.0,-0.44,-0.39,9.25,0.48,-0.35,-0.16,17.83,60.0-70.0
60.0,1225.0,0.23,0.3,9.37,0.67,1.69,0.01,17.83,60.0-70.0
60.0,1307.0,-0.27,0.37,10.16,0.24,1.16,-0.72,17.82,60.0-70.0
60.0,1042.0,-0.34,-0.31,9.52,0.19,-0.69,-0.91,17.82,60.0-70.0
60.0,1268.0,0.24,0.45,9.66,0.13,1.4,-0.02,17.82,60.0-70.0
60.0,1482.0,-0.57,0.02,9.57,-0.1,1.95,-1.21,17.83,60.0-70.0
60.0,894.0,-0.42,-0.32,9.5,-0.07,-1.07,0.24,17.83,60.0-70.0
60.0,1388.0,0.31,0.39,9.54,-0.45,1.02,0.95,17.84,60.0-70.0
60.0,1381.0,-0.35,-0.4,9.6,-0.25,1.86,-0.94,17.82,60.0-70.0
60.0,957.0,0.09,-0.12,10.23,0.7,-2.87,0.97,17.82,60.0-70.0
60.0,1023.0,-0.08,0.35,9.53,0.25,1.37,0.21,17.84,60.0-70.0
60.0,1305.0,-0.54,-0.72,9.38,-0.02,1.3,-1.81,17.82,60.0-70.0
60.0,1347.0,0.37,-0.08,10.6,0.59,-2.08,0.59,17.82,60.0-70.0
60.0,1055.0,-0.58,0.42,9.84,0.19,1.34,-0.6,17.85,60.0-70.0
60.0,1535.0,-0.93,-0.67,9.39,-0.39,1.01,-0.79,17.84,60.0-70.0
60.0,1415.0,0.41,0.25,10.17,-0.02,-0.76,1.38,17.81,60.0-70.0
60.0,1394.0,-0.52,0.2,9.5,-0.13,1.22,-0.53,17.84,60.0-70.0
60.0,899.0,0.51,-0.13,9.87,0.59,-2.87,1.14,17.85,60.0-70.0
60.0,1374.0,0.52,0.41,9.88,0.06,1.08,0.54,17.84,60.0-70.0
60.0,1421.0,-0.74,-0.53,9.76,-0.3,0.78,-1.64,17.82,60.0-70.0
60.0,1296.0,0.2,0.1,10.58,0.65,-2.78,0.66,17.82,60.0-70.0
60.0,1281.0,-0.56,0.37,9.86,0.1,1.56,-1.18,17.84,60.0-70.0
60.0,778.0,-0.73,-0.9,9.34,-0.31,0.56,-1.11,17.84,60.0-70.0
60.0,1267.0,0.48,0.52,10.05,0.65,-0.08,0.97,17.84,60.0-70.0
60.0,1376.0,-0.64,-0.21,9.32,-0.22,1.19,-0.8,17.85,60.0-70.0
60.0,1232.0,0.49,0.17,10.42,0.36,-3.19,2.01,17.82,60.0-70.0
60.0,831.0,0.05,0.32,9.91,-0.19,1.28,0.82,17.82,60.0-70.0
60.0,972.0,-1.06,-1.3,9.57,-1.15,0.27,-0.94,17.86,60.0-70.0
60.0,1350.0,0.41,-0.15,10.06,0.41,0.14,0.22,17.84,60.0-70.0
60.0,1354.0,-0.67,-0.42,9.07,-0.3,1.78,-2.48,17.83,60.0-70.0
60.0,1250.0,-0.26,0.52,10.09,1.54,-1.95,0.39,17.84,60.0-70.0
60.0,576.0,-0.14,0.81,9.75,0.73,1.33,0.31,17.84,60.0-70.0
60.0,980.0,-1.06,-1.84,9.45,-1.78,-0.34,-1.38,17.83,60.0-70.0
60.0,1381.0,0.4,-0.9,9.94,0.24,1.31,0.47,17.82,60.0-70.0
60.0,1493.0,-0.91,1.55,9.86,0.27,1.02,0.34,17.84,60.0-70.0
60.0,1213.0,0.11,1.09,10.58,1.84,-2.87,2.49,17.83,60.0-70.0
60.0,487.0,-0.12,1.02,9.54,0.88,2.18,1.12,17.82,60.0-70.0
60.0,604.0,-0.83,-1.67,8.87,-1.61,-0.72,-1.5,17.84,60.0-70.0
60.0,1445.0,1.14,0.28,10.83,0.19,-2.41,0.68,17.82,60.0-70.0
60.0,1679.0,-0.76,1.71,10.05,0.68,1.66,-1.12,17.83,60.0-70.0
60.0,1197.0,0.07,1.55,10.45,1.84,-4.5,2.1,17.82,60.0-70.0
60.0,369.0,0.92,1.33,10.21,1.12,1.54,0.92,17.84,60.0-70.0
60.0,583.0,-1.51,-2.74,9.05,-1.88,2.52,-2.6,17.83,60.0-70.0
60.0,1632.0,0.34,0.3,9.74,-0.17,-1.18,1.01,17.82,60.0-70.0
60.0,1877.0,0.39,0.62,9.89,-0.01,2.78,-1.17,17.84,60.0-70.0
60.0,1517.0,-0.02,0.5,10.22,0.31,-3.95,2.56,17.82,60.0-70.0
60.0,354.0,-0.03,-0.37,9.73,-0.68,-1.3,0.3,17.84,60.0-70.0
60.0,864.0,-0.62,-3.06,9.98,-2.08,1.3,-2.43,17.84,60.0-70.0
60.0,1200.0,-0.59,0.37,8.67,1.76,2.38,-0.14,17.86,60.0-70.0
60.0,1333.0,0.12,-0.53,9.02,-0.68,1.28,-2.34,17.84,60.0-70.0
60.0,1794.0,0.19,0.84,10.48,2.09,-1.69,1.69,17.84,60.0-70.0
60.0,970.0,-0.14,0.06,9.53,-0.74,0.49,0.18,17.83,60.0-70.0
60.0,884.0,-0.06,-1.42,9.11,-1.07,-1.19,-0.72,17.83,60.0-70.0
60.0,1258.0,0.55,-0.19,10.06,0.67,1.13,0.56,17.82,60.0-70.0
60.0,1504.0,-0.53,0.91,9.51,0.74,2.17,-0.88,17.81,60.0-70.0
60.0,1891.0,0.18,-0.03,9.92,0.36,-3.11,2.14,17.83,60.0-70.0
60.0,1498.0,0.2,0.44,10.24,0.06,1.17,-0.69,17.84,60.0-70.0
60.0,464.0,-1.12,0.08,9.82,1.69,-0.44,0.39,17.82,60.0-70.0
60.0,688.0,0.03,1.5,8.93,2.33,1.63,0.74,17.84,60.0-70.0
60.0,1622.0,0.12,-0.71,9.62,-0.77,-0.08,-1.52,17.83,60.0-70.0
60.0,1674.0,0.13,-0.03,10.63,-0.55,-0.95,1.61,17.85,60.0-70.0
60.0,1478.0,-0.66,0.93,9.11,0.96,1.89,-1.06,17.82,60.0-70.0
60.0,800.0,-0.47,-0.08,9.69,0.62,-1.08,0.07,17.84,60.0-70.0
60.0,757.0,-0.48,0.54,9.98,0.51,0.92,0.85,17.81,60.0-70.0
60.0,1184.0,-0.41,-2.04,9.92,-2.63,-0.79,-1.47,17.82,60.0-70.0
60.0,1747.0,0.03,0.76,9.06,1.86,2.67,0.34,17.82,60.0-70.0
60.0,1296.0,-0.58,1.06,9.79,0.65,1.14,-1.46,17.82,60.0-70.0
60.0,1666.0,0.46,0.9,10.16,1.93,-2.2,1.79,17.83,60.0-70.0
60.0,1406.0,0.4,0.63,9.99,-0.2,0.21,0.02,17.83,60.0-70.0
60.0,430.0,-0.86,0.85,10.12,1.93,-1.51,0.76,17.82,60.0-70.0
60.0,942.0,-0.47,0.3,8.91,0.56,3.42,0.43,17.84,60.0-70.0
60.0,1786.0,0.39,-0.47,9.06,0.09,-0.05,-1.5,17.83,60.0-70.0
60.0,2151.0,0.55,-0.21,11.39,-1.55,-1.68,2.01,17.82,60.0-70.0
60.0,1667.0,-0.63,2.13,9.57,1.92,0.59,-0.51,17.84,60.0-70.0
60.0,698.0,-0.11,-1.1,9.28,-0.19,-1.71,-1.09,17.83,60.0-70.0
60.0,391.0,-1.15,-0.36,9.29,0.77,3.46,-0.59,17.85,60.0-70.0
60.0,957.0,-0.14,-3.46,10.09,-3.55,-1.18,-2.74,17.84,60.0-70.0
60.0,2235.0,-0.47,0.61,8.37,1.49,5.46,-0.39,17.83,60.0-70.0
60.0,2089.0,-0.73,2.09,9.63,1.57,-0.52,-0.19,17.83,60.0-70.0
60.0,1535.0,1.3,1.49,10.63,2.76,-3.43,2.89,17.84,60.0-70.0
60.0,1116.0,-0.78,0.2,9.37,-0.43,1.28,-0.04,17.84,60.0-70.0
60.0,272.0,-0.98,0.69,10.01,2.15,-2.66,0.57,17.86,60.0-70.0
60.0,955.0,0.14,0.36,9.01,0.25,4.82,-0.04,17.83,60.0-70.0
60.0,2083.0,0.55,-1.04,9.89,-0.51,-1.63,-1.61,17.84,60.0-70.0
60.0,2267.0,0.53,-0.04,11.57,-1.81,-1.21,1.56,17.83,60.0-70.0
60.0,1943.0,-0.33,2.0,9.51,2.28,-0.67,-0.79,17.84,60.0-70.0
60.0,852.0,-0.72,0.04,9.74,1.8,-1.94,-0.56,17.83,60.0-70.0
60.0,361.0,-1.36,-0.57,8.36,0.01,5.34,-0.74,17.82,60.0-70.0
60.0,1289.0,0.61,-3.18,9.29,-3.15,-1.33,-2.36,17.83,60.0-70.0
60.0,2358.0,-0.81,0.3,8.76,1.47,6.9,-0.22,17.83,60.0-70.0
60.0,2388.0,-0.69,2.18,9.3,2.25,-0.89,-0.01,17.85,60.0-70.0
60.0,1837.0,1.43,0.86,11.11,1.37,-4.91,3.3,17.83,60.0-70.0
60.0,1214.0,-1.41,0.58,9.56,0.18,1.68,-0.72,17.82,60.0-70.0
60.0,699.0,-0.16,1.04,10.01,2.91,-2.76,1.14,17.84,60.0-70.0
60.0,785.0,-0.19,0.85,8.91,1.8,6.07,-0.21,17.82,60.0-70.0
60.0,2341.0,-0.01,-1.94,10.29,-2.11,-3.34,-1.43,17.83,60.0-70.0
60.0,2353.0,0.52,0.46,10.66,-0.97,1.88,0.91,17.82,60.0-70.0
60.0,1977.0,-0.01,0.69,9.42,1.44,-1.6,-0.71,17.83,60.0-70.0
60.0,1232.0,-0.23,1.11,10.39,2.82,-3.2,1.3,17.81,60.0-70.0
60.0,1158.0,-0.68,-0.89,7.73,-1.24,5.25,-0.72,17.82,60.0-70.0
60.0,793.0,0.33,-1.52,9.48,-0.72,-3.25,-1.26,17.82,60.0-70.0
60.0,1429.0,-1.49,-0.13,9.48,0.76,7.02,-0.34,17.82,60.0-70.0
60.0,2585.0,-0.26,1.05,9.64,2.04,-1.36,-0.6,17.83,60.0-70.0
60.0,2161.0,0.97,0.48,11.82,-0.63,-4.36,2.74,17.84,60.0-70.0
60.0,1567.0,-1.08,1.95,8.51,2.18,1.72,-0.86,17.84,60.0-70.0
60.0,1098.0,1.46,1.01,10.44,2.5,-4.29,2.4,17.83,60.0-70.0
60.0,1165.0,-1.72,-0.11,9.74,0.65,7.06,-0.48,17.82,60.0-70.0
60.0,1607.0,-0.07,-2.9,10.07,-3.53,-3.24,-1.66,17.82,60.0-70.0
60.0,2588.0,0.42,1.26,9.44,1.28,4.42,0.59,17.8,60.0-70.0
60.0,2162.0,0.5,-0.79,9.97,-1.06,-4.17,-0.22,17.82,60.0-70.0
60.0,1671.0,1.3,0.9,10.65,2.59,-4.53,2.48,17.84,60.0-70.0
60.0,1106.0,-2.21,-0.7,8.73,-0.91,5.89,-1.81,17.84,60.0-70.0
60.0,1248.0,-0.47,0.24,9.66,2.02,-3.91,0.1,17.82,60.0-70.0
60.0,1186.0,-0.02,-1.35,7.78,-1.88,6.65,-1.59,17.82,60.0-70.0
60.0,2220.0,0.35,-0.61,9.99,-0.84,-3.83,-0.43,17.84,60.0-70.0
60.0,2265.0,0.88,0.97,11.73,-0.8,-0.79,1.88,17.81,60.0-70.0
60.0,1853.0,-1.45,0.92,8.83,2.34,0.4,-0.5,17.83,60.0-70.0
60.0,1648.0,1.26,0.07,11.27,-0.55,-5.04,2.62,17.83,60.0-70.0
60.0,1521.0,0.12,-1.0,8.44,-1.88,5.65,-1.18,17.85,60.0-70.0
60.0,1597.0,0.44,-0.87,10.31,0.01,-4.21,-0.56,17.82,60.0-70.0
60.0,1211.0,-1.39,0.99,10.24,1.2,5.11,0.4,17.81,60.0-70.0
60.0,2001.0,0.5,-1.86,9.39,-2.48,-4.3,-1.14,17.86,60.0-70.0
60.0,1965.0,1.68,-0.21,11.72,-1.17,-5.01,1.91,17.83,60.0-70.0
60.0,1838.0,-1.66,1.01,8.12,1.43,4.88,-1.88,17.83,60.0-70.0
60.0,1776.0,1.3,0.59,11.12,1.66,-6.12,2.46,17.82,60.0-70.0
60.0,1487.0,-2.12,0.1,8.91,-0.69,5.45,-1.32,17.83,60.0-70.0
60.0,1470.0,0.56,-2.34,9.25,-2.65,-4.21,-1.18,17.83,60.0-70.0
60.0,1280.0,0.27,1.16,10.26,1.95,4.96,0.6,17.83,60.0-70.0
60.0,2255.0,-1.19,-1.44,9.45,-1.68,-2.35,-0.76,17.82,60.0-70.0
60.0,2155.0,1.65,1.53,10.76,0.27,0.43,1.17,17.82,60.0-70.0
60.0,1633.0,-2.03,-0.11,8.76,-0.77,6.16,-2.13,17.84,60.0-70.0
60.0,1504.0,0.73,0.3,10.32,2.33,-5.4,0.89,17.84,60.0-70.0
60.0,1482.0,-1.06,-1.31,8.91,-2.14,6.59,-2.08,17.81,60.0-70.0
60.0,1411.0,-0.68,-0.16,9.79,1.26,-4.47,-0.39,17.84,60.0-70.0
60.0,1294.0,1.63,1.41,10.5,0.7,0.76,1.29,17.84,60.0-70.0
60.0,2007.0,-0.87,-0.4,8.96,0.31,0.15,-0.51,17.84,60.0-70.0
60.0,2386.0,1.4,0.26,11.9,-1.07,-3.69,2.34,17.84,60.0-70.0
60.0,1791.0,-1.77,0.77,8.38,1.78,3.8,-1.14,17.82,60.0-70.0
60.0,1742.0,-0.35,0.48,10.11,2.18,-5.08,0.77,17.84,60.0-70.0
60.0,1368.0,-0.17,-0.17,9.13,-0.65,5.86,-0.56,17.85,60.0-70.0
60.0,1221.0,-0.21,-1.46,9.02,-0.48,-3.33,-1.17,17.84,60.0-70.0
60.0,1509.0,-0.81,0.4,9.99,0.77,5.63,-0.39,17.83,60.0-70.0
60.0,2068.0,-1.39,0.5,8.63,1.4,3.08,-1.55,17.83,60.0-70.0
60.0,2167.0,1.8,0.38,12.29,-0.62,-6.9,2.56,17.82,60.0-70.0
60.0,1910.0,-1.66,1.23,8.72,0.97,4.53,-1.21,17.83,60.0-70.0
60.0,1808.0,1.34,1.03,11.61,1.98,-8.62,3.24,17.85,60.0-70.0
60.0,1626.0,-0.62,0.22,9.6,0.68,5.6,0.02,17.85,60.0-70.0
60.0,870.0,0.02,-2.67,8.27,-2.52,-1.45,-1.66,17.82,60.0-70.0
60.0,1402.0,0.19,0.58,9.84,1.43,4.85,-0.08,17.84,60.0-70.0
60.0,2017.0,-1.31,-2.66,8.58,-2.74,1.16,-1.98,17.83,60.0-70.0
60.0,2594.0,1.66,0.75,12.28,1.0,-8.96,3.12,17.84,60.0-70.0
60.0,1949.0,-1.6,1.26,9.71,0.13,4.27,-0.98,17.83,60.0-70.0
60.0,1678.0,1.12,1.93,10.71,3.55,-9.25,3.04,17.83,60.0-70.0
60.0,935.0,-0.93,0.49,9.72,-0.66,4.42,-0.6,17.83,60.0-70.0
60.0,922.0,-0.98,-3.33,8.57,-3.55,0.95,-2.42,17.83,60.0-70.0
60.0,1621.0,0.92,0.21,10.21,0.67,3.01,-0.13,17.82,60.0-70.0
60.0,2045.0,-1.5,-1.79,8.59,-1.71,1.56,-1.59,17.81,60.0-70.0
60.0,2269.0,2.12,0.7,11.79,-1.06,-2.76,1.37,17.82,60.0-70.0
60.0,1825.0,-1.2,0.26,9.62,-0.51,5.72,-1.24,17.83,60.0-70.0
60.0,1744.0,-0.19,0.96,9.82,3.38,-5.84,1.52,17.82,60.0-70.0
60.0,1269.0,-0.21,-0.3,8.58,-1.03,5.37,-0.89,17.83,60.0-70.0
60.0,954.0,-1.26,-2.4,9.0,-2.94,0.67,-1.63,17.82,60.0-70.0
60.0,1424.0,1.48,0.34,11.22,-0.19,0.32,0.74,17.82,60.0-70.0
60.0,2511.0,-1.81,-0.89,8.76,-0.04,3.1,-1.46,17.81,60.0-70.0
60.0,2400.0,1.95,0.42,11.89,-1.07,-6.18,2.1,17.8,60.0-70.0
60.0,1979.0,-0.58,0.59,9.32,-0.39,5.14,-0.63,17.79,60.0-70.0
60.0,1520.0,-0.92,0.84,9.93,3.15,-3.85,0.6,17.84,60.0-70.0
60.0,1271.0,-0.62,-0.47,8.48,-0.48,6.79,-1.23,17.82,60.0-70.0
60.0,1165.0,-0.99,-2.39,7.58,-1.38,-0.35,-2.51,17.82,60.0-70.0
60.0,1377.0,2.17,0.94,11.91,-0.88,-5.04,1.7,17.81,60.0-70.0
60.0,2704.0,-0.73,1.2,9.92,1.23,0.52,-0.43,17.81,60.0-70.0
60.0,2153.0,1.93,1.19,12.97,0.1,-10.27,4.08,17.84,60.0-70.0
60.0,1454.0,-1.78,1.73,8.89,1.99,3.02,-0.4,17.84,60.0-70.0
60.0,1281.0,-1.2,-1.4,8.57,0.18,-0.47,-1.2,17.83,60.0-70.0
60.0,1298.0,0.12,-0.37,9.28,-0.52,7.11,-0.76,17.84,60.0-70.0
60.0,1334.0,0.14,-2.49,8.42,-2.68,-0.31,-2.1,17.84,60.0-70.0
60.0,1778.0,0.08,0.67,10.97,0.91,3.84,-0.01,17.81,60.0-70.0
60.0,2557.0,-1.48,1.27,8.95,1.76,2.82,-1.38,17.82,60.0-70.0
60.0,2023.0,1.42,0.71,11.92,0.76,-9.25,2.95,17.84,60.0-70.0
60.0,1599.0,-1.56,1.12,8.3,0.96,4.94,-1.4,17.81,60.0-70.0
60.0,1440.0,1.1,1.08,10.0,2.99,-7.36,2.88,17.82,60.0-70.0
60.0,1467.0,0.12,0.06,10.19,0.28,5.51,0.02,17.84,60.0-70.0
60.0,1603.0,-0.08,-2.77,8.64,-3.27,0.2,-1.55,17.84,60.0-70.0
60.0,1679.0,0.72,0.92,10.93,1.38,1.66,0.71,17.83,60.0-70.0
60.0,2160.0,-1.15,-1.88,9.77,-2.48,-0.37,-1.0,17.82,60.0-70.0
60.0,2276.0,1.12,0.8,11.19,1.87,-8.48,3.01,17.83,60.0-70.0
60.0,1593.0,-1.28,0.65,8.58,0.22,5.72,-1.98,17.84,60.0-70.0
60.0,1535.0,0.71,0.83,9.33,2.85,-5.63,1.63,17.86,60.0-70.0
60.0,1259.0,-0.82,-0.38,8.9,-1.21,6.23,-1.76,17.83,60.0-70.0
60.0,1282.0,-0.18,-2.69,9.09,-3.76,-0.24,-1.66,17.82,60.0-70.0
60.0,1206.0,1.12,0.81,11.05,0.97,0.72,0.74,17.84,60.0-70.0
60.0,1923.0,-1.81,-1.58,9.59,-1.78,0.76,-0.95,17.81,60.0-70.0
60.0,2509.0,1.53,1.1,11.54,0.06,-3.88,1.73,17.82,60.0-70.0
60.0,1835.0,-1.04,0.51,8.76,-0.17,6.04,-1.49,17.84,60.0-70.0
60.0,1601.0,0.49,0.98,9.42,3.46,-4.99,1.59,17.82,60.0-70.0
60.0,1298.0,-0.66,-0.21,8.82,-0.81,6.13,-1.53,17.83,60.0-70.0
60.0,1251.0,-0.84,0.39,9.37,2.51,-2.3,0.11,17.8,60.0-70.0
60.0,949.0,1.28,0.69,10.98,0.76,0.14,0.5,17.83,60.0-70.0
60.0,1711.0,-1.96,-1.76,9.29,-1.61,1.69,-1.29,17.83,60.0-70.0
60.0,2346.0,1.78,0.49,11.35,-0.81,-3.88,1.59,17.82,60.0-70.0
60.0,2309.0,-1.13,0.09,9.09,0.41,2.47,-1.15,17.83,60.0-70.0
60.0,1814.0,0.49,0.66,9.86,2.77,-5.17,1.84,17.84,60.0-70.0
60.0,1774.0,-1.02,-0.61,9.41,-1.33,5.98,-1.21,17.84,60.0-70.0
60.0,1237.0,-1.26,-0.36,9.14,1.46,-2.43,-0.21,17.83,60.0-70.0
60.0,1366.0,0.58,-0.76,9.05,-1.09,5.0,-1.01,17.82,60.0-70.0
60.0,1637.0,-1.42,-0.7,9.38,-0.42,1.24,-0.77,17.82,60.0-70.0
60.0,1921.0,1.83,1.2,11.72,0.04,-5.08,2.17,17.82,60.0-70.0
60.0,1963.0,-1.5,0.45,9.23,1.08,2.01,-0.79,17.84,60.0-70.0
60.0,2025.0,1.91,0.83,11.79,-0.17,-7.66,2.86,17.84,60.0-70.0
60.0,1392.0,-0.52,-0.7,9.26,-1.61,5.87,-1.59,17.83,60.0-70.0
60.0,1488.0,-1.37,-0.26,9.2,1.47,-1.42,-0.31,17.81,60.0-70.0
60.0,1264.0,0.43,-0.4,9.16,-0.68,5.1,-0.94,17.85,60.0-70.0
60.0,1431.0,-1.08,-1.86,8.34,-1.29,-0.03,-1.55,17.82,60.0-70.0
60.0,1734.0,2.44,1.08,11.45,0.01,-5.55,2.02,17.83,60.0-70.0
60.0,2151.0,-1.09,0.5,9.35,0.91,1.85,-0.72,17.84,60.0-70.0
60.0,1879.0,1.9,1.01,12.14,-0.01,-8.5,3.14,17.84,60.0-70.0
60.0,1381.0,-1.94,1.07,9.14,1.73,3.51,-0.88,17.83,60.0-70.0
60.0,1590.0,-1.06,-0.69,8.23,0.86,-0.93,-0.47,17.83,60.0-70.0
60.0,1294.0,1.31,-0.98,9.28,-1.58,4.91,-1.29,17.84,60.0-70.0
60.0,1818.0,-1.23,-1.56,9.06,-0.69,0.37,-1.0,17.83,60.0-70.0
60.0,1465.0,0.53,0.12,10.93,0.1,3.07,0.01,17.84,60.0-70.0
60.0,1776.0,-1.97,-0.15,9.4,0.77,2.36,-0.77,17.83,60.0-70.0
60.0,2079.0,1.52,1.21,11.21,0.59,-7.63,2.65,17.82,60.0-70.0
60.0,1894.0,-1.25,1.03,9.2,1.93,3.26,-1.09,17.82,60.0-70.0
60.0,1802.0,1.27,1.51,11.42,1.49,-8.62,3.29,17.82,60.0-70.0
60.0,1399.0,0.01,-1.08,9.53,-1.46,5.77,-1.37,17.83,60.0-70.0
60.0,1438.0,-1.96,-1.52,8.37,-0.36,1.95,-1.26,17.82,60.0-70.0
60.0,1954.0,1.16,-1.1,9.33,-1.52,4.3,-1.01,17.83,60.0-70.0
60.0,1734.0,-0.75,-2.92,8.63,-3.24,1.48,-2.11,17.83,60.0-70.0
60.0,1807.0,2.1,1.78,12.01,0.71,-8.55,3.0,17.83,60.0-70.0
60.0,1687.0,-1.43,1.29,9.56,2.1,0.93,-0.51,17.79,60.0-70.0
60.0,1346.0,1.47,1.56,11.01,1.35,-8.42,3.03,17.84,60.0-70.0
60.0,1037.0,-1.4,1.43,8.39,2.54,4.56,-1.52,17.84,60.0-70.0
60.0,1419.0,-1.35,-1.07,8.91,0.3,1.25,-1.11,17.81,60.0-70.0
60.0,1824.0,0.93,-1.14,9.66,-1.64,4.56,-1.12,17.82,60.0-70.0
60.0,2002.0,-1.14,-2.12,8.97,-2.23,0.18,-1.24,17.82,60.0-70.0
60.0,1804.0,1.2,-0.02,11.12,-0.31,2.03,0.18,17.84,60.0-70.0
60.0,1897.0,-1.15,0.29,9.27,0.93,1.72,-0.43,17.84,60.0-70.0
60.0,1919.0,1.56,1.03,11.16,0.39,-6.47,2.63,17.83,60.0-70.0
60.0,1073.0,-1.74,0.59,8.42,1.75,5.08,-1.59,17.82,60.0-70.0
60.0,1488.0,0.8,0.55,10.04,0.91,-5.72,2.28,17.82,60.0-70.0
60.0,1472.0,1.07,-0.37,9.7,-1.21,2.99,-0.95,17.82,60.0-70.0
60.0,2001.0,-1.1,-0.65,9.17,-0.07,-0.2,-0.6,17.83,60.0-70.0
60.0,1787.0,1.27,0.02,10.33,-0.05,1.85,-0.07,17.84,60.0-70.0
60.0,1535.0,-0.77,-2.21,8.94,-2.23,0.72,-1.29,17.82,60.0-70.0
60.0,1616.0,1.64,0.72,11.41,-0.25,-6.33,2.11,17.82,60.0-70.0
60.0,1878.0,-1.46,0.36,9.35,1.08,2.78,-1.0,17.82,60.0-70.0
60.0,1709.0,1.21,0.92,11.26,0.53,-6.93,2.86,17.82,60.0-70.0
60.0,1287.0,-1.33,1.03,9.15,1.63,4.03,-1.32,17.84,60.0-70.0
60.0,1535.0,-1.17,-0.29,8.57,1.09,0.23,-0.34,17.84,60.0-70.0
60.0,1360.0,1.08,-0.03,9.57,-0.14,3.36,-0.57,17.82,60.0-70.0
60.0,1207.0,-1.43,-1.4,8.68,-0.83,2.0,-1.32,17.8,60.0-70.0
60.0,918.0,-0.26,0.67,10.09,1.29,3.14,-0.05,17.8,60.0-70.0
60.0,1309.0,-0.54,0.15,9.52,-0.16,2.14,-0.07,17.51,60.0-70.0
60.0,1333.0,-0.44,-0.2,9.72,-0.23,0.34,-0.83,17.53,60.0-70.0
60.0,986.0,-0.19,-0.33,9.43,0.07,0.37,-0.22,17.52,60.0-70.0
60.0,1469.0,0.19,0.12,9.74,0.41,0.87,-0.18,17.53,60.0-70.0
60.0,1599.0,-0.04,-0.05,9.88,-0.4,1.28,-0.98,17.54,60.0-70.0
60.0,1646.0,-0.45,-0.65,9.82,-0.51,0.27,-2.57,17.53,60.0-70.0
60.0,1466.0,-0.23,-0.52,9.68,0.03,0.15,-1.46,17.53,60.0-70.0
60.0,1678.0,0.26,0.55,9.78,0.73,0.82,0.36,17.52,60.0-70.0
60.0,1175.0,-0.13,0.34,9.64,-0.08,1.66,0.5,17.54,60.0-70.0
60.0,1664.0,-0.58,-0.21,9.56,-0.46,-0.11,0.62,17.54,60.0-70.0
60.0,1525.0,0.1,-0.62,9.94,-0.26,-0.92,1.58,17.54,60.0-70.0
60.0,1610.0,-0.16,-0.35,9.92,-0.22,0.93,0.91,17.56,60.0-70.0
60.0,1920.0,0.0,0.37,9.61,0.62,0.03,-0.05,17.52,60.0-70.0
60.0,1461.0,0.06,0.04,9.78,0.27,-1.95,-0.28,17.53,60.0-70.0
60.0,1895.0,0.63,0.61,10.45,0.77,-0.38,0.14,17.54,60.0-70.0
60.0,1365.0,-0.61,0.26,9.51,0.7,0.85,-1.58,17.54,60.0-70.0
60.0,1156.0,-0.62,-0.14,9.22,0.09,-0.14,-1.55,17.55,60.0-70.0
60.0,1414.0,0.61,-0.26,10.14,-0.22,-1.21,0.57,17.56,60.0-70.0
60.0,1301.0,-0.77,-0.08,9.31,-0.3,3.23,-0.27,17.54,60.0-70.0
60.0,1631.0,-0.68,0.02,9.03,0.27,-0.15,0.37,17.54,60.0-70.0
60.0,1650.0,0.79,-0.5,9.72,-0.33,-1.37,1.26,17.53,60.0-70.0
60.0,1455.0,0.22,-0.05,9.89,-0.46,2.69,0.04,17.54,60.0-70.0
60.0,2000.0,-0.41,-0.21,10.02,0.38,-0.78,-0.71,17.54,60.0-70.0
60.0,1926.0,0.37,-0.13,10.13,0.5,-0.89,0.27,17.55,60.0-70.0
60.0,1077.0,-0.41,0.42,10.14,0.35,1.05,-0.51,17.53,60.0-70.0
60.0,1863.0,-0.44,-0.18,9.87,-0.02,-1.62,-0.79,17.51,60.0-70.0
60.0,1803.0,0.51,-0.12,9.88,0.09,-0.84,0.97,17.52,60.0-70.0
60.0,1115.0,-0.52,-0.31,9.51,-1.21,2.56,-0.6,17.53,60.0-70.0
60.0,1493.0,-0.51,-0.37,9.99,-0.55,-1.47,0.27,17.54,60.0-70.0
60.0,1782.0,0.34,-0.01,10.0,0.07,-0.49,1.52,17.52,60.0-70.0
60.0,1430.0,-0.64,-0.47,9.37,-0.78,2.47,-1.0,17.54,60.0-70.0
60.0,1207.0,-0.06,-0.36,10.0,0.54,-1.1,-0.42,17.53,60.0-70.0
60.0,1564.0,0.3,0.3,10.38,0.71,-0.76,0.82,17.56,60.0-70.0
60.0,1600.0,-0.88,-0.47,8.99,-0.11,2.75,-1.93,17.54,60.0-70.0
60.0,928.0,0.5,-0.77,9.67,0.13,-1.19,-0.34,17.54,60.0-70.0
60.0,1446.0,-0.07,0.99,10.51,0.85,0.41,0.57,17.54,60.0-70.0
60.0,1726.0,-0.87,-0.37,9.1,-0.11,2.21,-0.76,17.53,60.0-70.0
60.0,1412.0,0.15,-0.95,9.71,-0.57,-1.5,0.77,17.53,60.0-70.0
60.0,799.0,0.2,0.12,9.84,-0.42,1.53,-0.19,17.53,60.0-70.0
60.0,1730.0,-0.08,0.06,9.76,0.51,-1.6,-0.07,17.53,60.0-70.0
60.0,1626.0,0.13,-0.77,10.1,-0.2,-0.87,0.42,17.52,60.0-70.0
60.0,946.0,-0.4,-0.87,9.46,-0.81,2.53,-2.17,17.54,60.0-70.0
60.0,579.0,-0.49,-0.34,9.83,0.82,-1.74,-0.77,17.54,60.0-70.0
60.0,1895.0,0.63,1.75,10.27,1.44,-0.47,0.82,17.54,60.0-70.0
60.0,1463.0,-0.77,-1.01,8.89,-0.8,3.17,-1.73,17.53,60.0-70.0
60.0,915.0,0.52,-1.39,9.44,-0.36,-1.18,0.24,17.56,60.0-70.0
60.0,803.0,-0.11,0.46,10.2,-0.14,0.7,0.24,17.55,60.0-70.0
60.0,1423.0,0.17,0.74,9.99,1.0,-1.94,1.01,17.54,60.0-70.0
60.0,1177.0,-0.04,-1.39,9.89,-0.75,-0.57,0.79,17.54,60.0-70.0
60.0,1242.0,-0.49,-1.26,9.47,-1.3,3.19,-2.22,17.52,60.0-70.0
60.0,579.0,-0.62,-0.33,9.82,0.73,-1.91,-0.83,17.52,60.0-70.0
60.0,1584.0,0.46,2.0,10.74,1.46,-0.89,0.37,17.55,60.0-70.0
60.0,1132.0,-0.81,-1.68,8.88,-1.01,3.28,-2.49,17.54,60.0-70.0
60.0,1270.0,0.23,-2.09,9.67,-1.03,-1.28,-0.54,17.54,60.0-70.0
60.0,1289.0,0.01,-0.32,9.65,-0.74,2.5,-1.38,17.55,60.0-70.0
60.0,1703.0,-0.36,1.08,10.49,1.25,-3.53,1.29,17.54,60.0-70.0
60.0,1296.0,0.16,-0.84,10.11,-0.22,-0.35,1.78,17.54,60.0-70.0
60.0,1072.0,-1.01,-2.28,8.52,-1.73,4.1,-2.36,17.53,60.0-70.0
60.0,1388.0,0.73,-1.7,9.54,-0.39,-0.84,-0.63,17.56,60.0-70.0
60.0,1152.0,-0.35,1.11,10.37,0.27,0.47,-0.97,17.53,60.0-70.0
60.0,1392.0,-1.03,-0.78,9.74,-0.75,-0.28,-0.98,17.53,60.0-70.0
60.0,1350.0,-0.04,-2.24,9.62,-0.92,0.76,-0.68,17.53,60.0-70.0
60.0,1389.0,-0.83,-2.06,8.58,-1.62,4.27,-3.56,17.54,60.0-70.0
60.0,1394.0,0.6,-0.83,9.75,-0.11,-0.92,-0.43,17.55,60.0-70.0
60.0,1497.0,0.07,2.73,9.66,1.89,-0.67,3.12,17.52,60.0-70.0
60.0,1390.0,-0.83,-2.36,9.96,-2.02,0.47,-0.94,17.55,60.0-70.0
60.0,1358.0,-0.5,-2.63,9.1,-1.06,1.2,-0.18,17.55,60.0-70.0
60.0,1586.0,-0.32,-1.64,8.91,-1.21,4.33,-3.24,17.55,60.0-70.0
60.0,1271.0,0.5,2.32,10.2,3.14,-1.4,1.93,17.56,60.0-70.0
60.0,1257.0,-0.13,2.19,9.47,1.7,-1.65,2.08,17.54,60.0-70.0
60.0,836.0,-0.64,-3.05,10.0,-2.05,1.25,-2.48,17.57,60.0-70.0
60.0,1467.0,-0.73,-2.21,8.75,-0.66,1.59,-0.85,17.53,60.0-70.0
60.0,1954.0,0.54,2.33,11.19,0.51,-2.38,1.0,17.53,60.0-70.0
60.0,1077.0,0.27,2.23,10.01,2.91,-1.19,2.33,17.54,60.0-70.0
60.0,981.0,-0.16,1.75,9.54,0.93,-1.66,2.39,17.52,60.0-70.0
60.0,903.0,-0.66,-3.21,10.17,-2.43,0.78,-1.9,17.53,60.0-70.0
60.0,1680.0,0.24,-0.36,10.07,-0.36,-1.97,0.51,17.52,60.0-70.0
60.0,1963.0,0.41,1.95,11.11,0.42,-1.8,0.68,17.53,60.0-70.0
60.0,878.0,0.28,2.13,10.15,3.44,-1.01,1.72,17.54,60.0-70.0
60.0,1071.0,-0.28,1.93,9.42,1.46,-1.18,1.61,17.54,60.0-70.0
60.0,1374.0,-0.43,-1.04,8.61,-0.78,4.1,-3.26,17.53,60.0-70.0
60.0,1659.0,0.63,-0.71,10.34,-0.57,-1.6,0.16,17.56,60.0-70.0
60.0,1601.0,-0.2,1.59,10.79,-0.14,-0.96,0.31,17.56,60.0-70.0
60.0,1023.0,0.25,2.08,10.7,2.77,-2.84,2.42,17.55,60.0-70.0
60.0,1038.0,-0.13,-1.41,8.98,0.09,2.35,0.13,17.55,60.0-70.0
60.0,1223.0,-0.91,-1.36,8.11,-0.95,4.49,-2.98,17.53,60.0-70.0
60.0,1907.0,0.78,-1.01,10.32,-0.66,-1.36,-0.13,17.57,60.0-70.0
60.0,1610.0,-0.43,1.08,10.17,-0.2,0.47,-1.06,17.56,60.0-70.0
60.0,1023.0,-0.7,-1.21,9.53,-1.17,-1.51,-1.08,17.54,60.0-70.0
60.0,846.0,0.3,-0.77,9.52,0.86,1.95,0.05,17.53,60.0-70.0
60.0,1558.0,-1.03,-2.04,8.03,-1.07,3.63,-2.63,17.54,60.0-70.0
60.0,1805.0,0.44,-1.18,10.28,-1.07,-1.08,0.28,17.53,60.0-70.0
60.0,1472.0,0.61,2.01,10.57,1.29,-0.02,1.9,17.54,60.0-70.0
60.0,853.0,-0.88,0.3,9.16,0.33,-1.47,0.53,17.55,60.0-70.0
60.0,1082.0,0.77,0.14,10.01,0.77,-0.46,0.94,17.56,60.0-70.0
60.0,1559.0,-1.08,-2.69,9.06,-1.78,2.65,-2.62,17.55,60.0-70.0
60.0,1608.0,-0.09,0.73,10.0,1.0,-3.33,1.21,17.54,60.0-70.0
60.0,1677.0,1.1,1.87,10.71,0.91,-0.7,0.54,17.54,60.0-70.0
60.0,581.0,-0.37,1.09,9.51,2.1,-0.84,0.86,17.55,60.0-70.0
60.0,944.0,-0.13,0.78,9.88,0.77,-0.95,1.2,17.55,60.0-70.0
60.0,1365.0,-0.14,-0.54,8.92,-0.52,3.16,-2.34,17.52,60.0-70.0
60.0,1775.0,0.34,-0.44,10.41,-0.34,-2.29,1.32,17.54,60.0-70.0
60.0,1497.0,-0.06,1.3,10.44,0.24,0.43,0.08,17.55,60.0-70.0
60.0,779.0,-0.53,1.36,10.38,1.99,-2.47,2.1,17.54,60.0-70.0
60.0,1010.0,0.21,-0.07,9.09,0.99,1.74,0.5,17.54,60.0-70.0
60.0,1094.0,-0.38,-1.86,8.94,-1.3,2.5,-2.63,17.54,60.0-70.0
60.0,1791.0,-0.13,-0.76,10.3,-0.65,-1.22,0.36,17.52,60.0-70.0
60.0,1535.0,-0.48,1.15,10.01,0.48,1.56,-1.59,17.55,60.0-70.0
60.0,1066.0,0.1,-0.39,9.36,0.41,-0.31,-0.22,17.56,60.0-70.0
60.0,969.0,0.19,0.21,9.37,0.96,1.24,0.63,17.53,60.0-70.0
60.0,1394.0,-0.98,-2.81,9.27,-2.69,1.59,-2.27,17.54,60.0-70.0
60.0,1743.0,0.03,-0.63,9.46,-0.28,1.4,0.28,17.54,60.0-70.0
60.0,1778.0,0.19,1.61,10.71,0.5,-0.75,0.54,17.54,60.0-70.0
60.0,1172.0,-0.76,1.39,10.29,2.53,-2.64,1.66,17.55,60.0-70.0
60.0,846.0,-0.21,0.8,10.25,0.85,-0.61,1.08,17.53,60.0-70.0
60.0,1459.0,-0.62,-1.86,9.18,-1.39,0.21,-1.55,17.54,60.0-70.0
60.0,1598.0,0.19,-0.51,10.57,-0.62,-1.79,0.72,17.54,60.0-70.0
60.0,1783.0,-0.53,1.47,10.23,0.7,1.49,-1.18,17.56,60.0-70.0
60.0,1527.0,0.16,1.03,10.15,1.55,-3.16,2.08,17.54,60.0-70.0
60.0,749.0,0.88,0.97,10.36,-0.16,-1.13,0.72,17.54,60.0-70.0
60.0,1141.0,-0.72,-2.77,9.79,-2.74,0.56,-1.99,17.55,60.0-70.0
60.0,1268.0,-0.46,-0.51,9.31,-0.08,2.06,0.28,17.53,60.0-70.0
60.0,1477.0,-0.52,-0.51,8.69,-0.1,3.13,-2.48,17.54,60.0-70.0
60.0,2111.0,0.42,-0.78,10.57,-0.84,-1.56,0.77,17.54,60.0-70.0
60.0,1475.0,0.07,1.17,10.31,1.02,-0.69,1.27,17.52,60.0-70.0
60.0,1033.0,-0.47,-0.9,9.1,-0.8,-0.37,-0.91,17.54,60.0-70.0
60.0,1202.0,0.7,0.3,8.98,1.52,1.88,0.42,17.53,60.0-70.0
60.0,1642.0,-0.49,-2.64,9.53,-2.16,1.4,-2.33,17.52,60.0-70.0
60.0,1885.0,-0.09,1.04,10.23,1.52,-2.69,2.04,17.53,60.0-70.0
60.0,1762.0,0.64,1.46,10.33,0.45,-1.28,0.66,17.55,60.0-70.0
60.0,684.0,-0.35,0.86,9.86,2.02,-1.11,0.98,17.54,60.0-70.0
60.0,1108.0,-0.52,0.15,9.87,0.18,-0.02,0.65,17.55,60.0-70.0
60.0,1375.0,-0.04,-0.52,9.36,-0.49,1.94,-2.51,17.53,60.0-70.0
60.0,1909.0,0.03,-0.06,10.9,-0.52,-2.5,1.35,17.54,60.0-70.0
60.0,1922.0,-0.48,2.24,10.62,1.35,-0.34,-0.3,17.55,60.0-70.0
60.0,944.0,-0.14,1.84,10.61,3.03,-2.67,2.56,17.55,60.0-70.0
60.0,816.0,-0.22,-0.33,8.81,1.55,3.75,-0.08,17.56,60.0-70.0
60.0,2139.0,-0.68,-2.75,9.03,-2.89,0.92,-2.51,17.53,60.0-70.0
60.0,1584.0,0.34,-0.08,9.94,-0.71,1.42,0.36,17.53,60.0-70.0
60.0,2033.0,-0.31,0.39,9.71,0.5,1.83,-1.61,17.53,60.0-70.0
60.0,1196.0,-1.15,0.93,9.83,2.18,-2.11,1.26,17.54,60.0-70.0
60.0,978.0,0.01,0.03,9.89,-0.19,-0.79,0.39,17.54,60.0-70.0
60.0,1051.0,-0.03,-1.75,9.44,-0.97,0.85,-1.72,17.56,60.0-70.0
60.0,1573.0,-0.44,0.88,8.28,2.21,3.01,0.16,17.53,60.0-70.0
60.0,1621.0,-0.34,1.43,9.66,1.17,0.72,-1.23,17.55,60.0-70.0
60.0,1951.0,0.8,0.41,10.13,1.02,-2.05,1.79,17.55,60.0-70.0
60.0,1457.0,0.37,0.55,10.16,-0.52,-0.84,-0.16,17.55,60.0-70.0
60.0,556.0,-0.51,0.68,10.3,1.73,-1.53,1.26,17.55,60.0-70.0
60.0,1367.0,-0.39,0.13,9.24,0.85,2.62,0.57,17.57,60.0-70.0
60.0,1535.0,-0.27,-1.02,9.26,-0.39,0.93,-1.95,17.54,60.0-70.0
60.0,1843.0,0.02,-0.5,10.7,-0.78,-1.57,1.35,17.56,60.0-70.0
60.0,1989.0,-0.37,1.34,10.32,1.02,0.38,-1.15,17.54,60.0-70.0
60.0,948.0,-0.16,-0.37,9.27,0.6,0.11,-0.36,17.53,60.0-70.0
60.0,874.0,-0.26,0.67,8.67,1.57,1.48,0.48,17.54,60.0-70.0
60.0,1085.0,-0.23,-2.76,9.95,-3.01,-0.09,-2.42,17.54,60.0-70.0
60.0,1904.0,-0.92,-0.3,9.19,0.45,3.55,-0.08,17.52,60.0-70.0
60.0,2040.0,-0.46,1.21,10.15,0.03,-1.02,-0.31,17.55,60.0-70.0
60.0,1723.0,0.1,1.31,10.59,1.99,-2.91,2.3,17.53,60.0-70.0
60.0,688.0,0.46,0.75,10.1,0.42,-0.08,1.11,17.54,60.0-70.0
60.0,982.0,-0.22,-0.32,8.82,0.59,0.05,-0.24,17.56,60.0-70.0
60.0,1309.0,-0.65,-0.65,9.67,-0.8,0.9,0.4,17.54,60.0-70.0
60.0,1968.0,0.33,0.4,9.82,0.62,0.88,-2.11,17.53,60.0-70.0
60.0,2304.0,0.25,0.06,11.24,-0.22,-3.01,1.76,17.55,60.0-70.0
60.0,1730.0,-0.14,1.97,10.58,0.54,-3.56,0.24,17.55,60.0-70.0
60.0,379.0,0.39,-2.25,8.52,-2.43,0.24,-2.07,17.54,60.0-70.0
60.0,720.0,-0.2,-1.01,8.57,0.54,6.73,-0.91,17.53,60.0-70.0
60.0,1676.0,-1.39,-3.43,8.88,-2.66,3.45,-3.21,17.53,60.0-70.0
60.0,2448.0,-0.2,-1.06,9.69,-1.93,1.94,-0.07,17.53,60.0-70.0
60.0,2207.0,1.32,2.12,11.05,1.44,-4.01,1.79,17.53,60.0-70.0
60.0,656.0,-0.81,1.44,10.21,3.55,-2.15,1.59,17.55,60.0-70.0
60.0,94.0,-1.49,0.6,8.3,1.54,1.71,0.47,17.57,60.0-70.0
60.0,1005.0,0.24,-3.0,8.13,-2.6,1.48,-2.75,17.55,60.0-70.0
60.0,2267.0,1.05,-0.55,12.08,-1.7,-2.41,1.38,17.54,60.0-70.0
60.0,2107.0,-0.68,1.98,11.07,0.97,-1.91,-0.14,17.55,60.0-70.0
60.0,1552.0,0.89,2.16,10.8,2.37,-7.1,3.73,17.54,60.0-70.0
60.0,379.0,0.93,1.63,10.67,0.83,-3.65,1.26,17.55,60.0-70.0
60.0,674.0,-0.82,-3.93,9.38,-3.93,3.17,-2.95,17.54,60.0-70.0
60.0,1095.0,-1.2,-0.97,8.44,-0.51,7.38,-0.94,17.56,60.0-70.0
60.0,2210.0,0.1,-1.54,9.07,-1.12,1.74,-2.59,17.55,60.0-70.0
60.0,2251.0,0.98,-0.92,11.94,-2.22,-1.59,1.05,17.55,60.0-70.0
60.0,1354.0,-0.02,1.04,9.68,1.17,-0.38,0.68,17.55,60.0-70.0
60.0,0.0,-0.53,0.32,8.69,1.99,-1.42,-0.33,17.56,60.0-70.0
60.0,470.0,-0.66,0.87,7.85,1.8,4.39,0.25,17.57,60.0-70.0
60.0,1491.0,-0.34,-2.92,9.24,-3.06,1.53,-2.46,17.55,60.0-70.0
60.0,2186.0,0.62,-0.8,12.23,-1.73,-3.19,2.02,17.55,60.0-70.0
60.0,2237.0,-0.76,1.42,10.92,0.04,-3.39,0.02,17.56,60.0-70.0
60.0,1129.0,1.07,2.25,11.44,2.53,-7.11,3.44,17.56,60.0-70.0
60.0,295.0,0.48,1.62,10.61,1.43,-2.0,1.37,17.54,60.0-70.0
60.0,775.0,-1.41,-3.91,9.31,-3.19,2.75,-3.21,17.53,60.0-70.0
60.0,1722.0,-1.14,-1.39,8.6,-1.39,6.19,-1.14,17.54,60.0-70.0
60.0,2281.0,0.78,-0.72,9.24,-0.42,2.2,-2.85,17.53,60.0-70.0
60.0,2658.0,0.56,-0.65,12.41,-1.74,-2.56,1.43,17.56,60.0-70.0
60.0,627.0,-1.2,1.3,8.92,1.63,0.12,1.34,17.55,60.0-70.0
60.0,0.0,0.49,-1.22,7.94,-0.48,-1.27,-1.2,17.55,60.0-70.0
60.0,687.0,-0.14,-0.21,7.72,1.46,7.75,-0.43,17.55,60.0-70.0
60.0,2096.0,-1.09,-3.82,8.99,-3.41,3.17,-3.17,17.54,60.0-70.0
60.0,2928.0,0.76,0.81,11.61,0.24,-6.15,3.06,17.55,60.0-70.0
60.0,2061.0,0.34,1.57,11.25,0.36,-4.75,0.72,17.56,60.0-70.0
60.0,438.0,-0.36,2.25,11.47,3.64,-5.22,2.59,17.56,60.0-70.0
60.0,281.0,-0.83,-0.33,7.82,1.08,8.57,-0.94,17.55,60.0-70.0
60.0,1105.0,-0.3,-2.37,8.84,-1.79,2.17,-2.78,17.56,60.0-70.0
60.0,2032.0,0.01,-1.33,10.45,-2.55,2.26,0.19,17.55,60.0-70.0
60.0,2288.0,-0.09,0.43,9.86,0.27,1.16,-1.66,17.56,60.0-70.0
60.0,1685.0,-0.19,1.32,10.5,2.68,-4.04,1.2,17.56,60.0-70.0
60.0,386.0,-1.2,1.54,8.82,2.25,1.74,1.34,17.54,60.0-70.0
60.0,897.0,0.01,-1.87,9.09,-2.0,-1.16,-1.63,17.56,60.0-70.0
60.0,1308.0,-0.64,-0.14,8.06,1.35,7.6,-0.47,17.58,60.0-70.0
60.0,2047.0,-0.84,1.02,10.66,0.18,-0.57,-1.06,17.57,60.0-70.0
60.0,2211.0,0.73,1.65,11.13,1.7,-5.4,2.74,17.57,60.0-70.0
60.0,1888.0,0.86,1.52,10.82,0.68,-3.25,1.32,17.57,60.0-70.0
60.0,366.0,-0.16,1.56,10.5,3.0,-3.53,1.49,17.54,60.0-70.0
60.0,672.0,-1.39,-1.33,8.36,-0.86,6.64,-0.71,17.54,60.0-70.0
60.0,1654.0,0.36,-0.85,8.56,-0.33,2.78,-2.66,17.57,60.0-70.0
60.0,2297.0,0.52,-1.15,11.28,-1.79,-0.14,0.95,17.56,60.0-70.0
60.0,2216.0,-0.7,1.37,10.74,0.12,-1.92,-0.48,17.57,60.0-70.0
60.0,675.0,0.26,-0.7,8.84,-0.54,-2.52,-0.8,17.57,60.0-70.0
60.0,1066.0,0.13,0.14,8.37,1.78,4.79,-0.13,17.56,60.0-70.0
60.0,1407.0,-0.9,-3.22,9.22,-2.42,1.77,-2.95,17.57,60.0-70.0
60.0,1893.0,-0.78,-1.09,8.75,-1.17,3.98,-0.51,17.53,60.0-70.0
60.0,2272.0,1.11,1.56,10.96,0.53,-3.43,0.74,17.56,60.0-70.0
60.0,1183.0,-0.43,1.87,10.77,3.06,-2.2,1.69,17.55,60.0-70.0
60.0,726.0,-1.04,1.27,9.22,1.44,-0.55,1.49,17.57,60.0-70.0
60.0,1211.0,-0.13,-1.95,9.37,-1.91,-0.34,-1.5,17.55,60.0-70.0
60.0,1699.0,0.28,-1.39,11.02,-2.0,-0.15,0.59,17.57,60.0-70.0
60.0,2314.0,-0.41,1.32,11.03,0.36,-1.77,-0.57,17.56,60.0-70.0
60.0,1881.0,0.26,1.88,10.96,1.86,-4.64,2.83,17.58,60.0-70.0
60.0,714.0,1.15,1.87,10.93,1.28,-3.82,1.53,17.56,60.0-70.0
60.0,914.0,-1.12,-3.52,9.14,-2.68,3.74,-3.38,17.57,60.0-70.0
60.0,1229.0,-1.0,-1.33,8.66,-1.17,4.03,-0.82,17.55,60.0-70.0
60.0,2131.0,0.54,-0.17,9.6,-0.52,2.55,-2.65,17.57,60.0-70.0
60.0,2238.0,0.2,-0.2,10.96,-0.63,-2.12,1.44,17.54,60.0-70.0
60.0,1331.0,-0.61,1.17,9.28,1.49,-1.4,1.56,17.57,60.0-70.0
60.0,594.0,-0.52,-2.61,9.08,-2.51,1.11,-2.07,17.58,60.0-70.0
60.0,1071.0,-0.73,-1.12,8.34,0.76,5.49,-0.54,17.54,60.0-70.0
60.0,2246.0,-0.56,-2.78,8.5,-2.28,3.31,-3.26,17.57,60.0-70.0
60.0,2520.0,0.41,2.49,11.05,2.88,-5.07,3.36,17.55,60.0-70.0
60.0,1776.0,1.03,2.05,10.37,1.75,-2.14,1.55,17.56,60.0-70.0
60.0,0.0,-0.75,0.53,8.38,1.69,-0.29,0.22,17.54,60.0-70.0
60.0,694.0,-0.15,-0.44,8.62,0.59,1.88,0.18,17.56,60.0-70.0
60.0,1877.0,0.74,0.09,10.51,-0.52,0.76,-1.9,17.56,60.0-70.0
60.0,2928.0,0.44,0.65,11.68,-0.23,-5.59,2.89,17.57,60.0-70.0
60.0,2234.0,0.44,3.05,11.7,1.61,-5.54,1.63,17.56,60.0-70.0
60.0,70.0,-0.43,2.55,11.08,4.05,-3.83,3.35,17.56,60.0-70.0
60.0,345.0,-1.0,-1.64,8.14,0.47,7.55,-1.4,17.55,60.0-70.0
60.0,1487.0,-0.41,-3.02,8.9,-3.26,3.28,-3.49,17.56,60.0-70.0
60.0,2537.0,1.06,-0.68,11.54,-1.94,-1.1,0.37,17.55,60.0-70.0
60.0,2669.0,0.07,1.07,11.51,-0.07,-1.83,-0.86,17.55,60.0-70.0
60.0,962.0,-1.69,0.9,7.49,2.73,0.92,0.01,17.55,60.0-70.0
60.0,15.0,0.1,-0.07,7.93,0.51,3.14,-0.28,17.53,60.0-70.0
60.0,794.0,-1.3,-3.94,9.12,-3.35,6.79,-3.47,17.55,60.0-70.0
60.0,2269.0,-1.45,-1.38,7.98,0.21,7.37,-0.85,17.57,60.0-70.0
60.0,2505.0,0.1,2.65,11.4,1.15,-6.79,1.32,17.54,60.0-70.0
60.0,2106.0,0.42,2.94,11.38,4.16,-5.8,3.96,17.56,60.0-70.0
60.0,272.0,-0.22,2.02,9.07,2.65,-0.12,1.4,17.54,60.0-70.0
60.0,320.0,-1.15,-0.07,6.58,1.22,2.59,-1.09,17.56,60.0-70.0
60.0,1657.0,0.76,-0.84,10.49,-2.08,0.06,-0.18,17.57,60.0-70.0
60.0,2927.0,1.14,0.62,11.8,-0.37,-1.77,-1.35,17.56,60.0-70.0
60.0,2221.0,0.15,1.05,11.93,0.13,-9.11,3.38,17.55,60.0-70.0
60.0,995.0,0.61,3.26,11.34,2.22,-6.96,1.82,17.54,60.0-70.0
60.0,0.0,-0.34,-3.98,8.66,-3.59,6.41,-3.55,17.56,60.0-70.0
60.0,976.0,-1.17,-1.7,8.41,0.28,8.41,-1.12,17.56,60.0-70.0
60.0,2397.0,-0.1,-2.81,9.52,-3.29,1.16,-2.8,17.57,60.0-70.0
60.0,2927.0,1.53,-0.78,12.53,-2.34,-3.42,0.98,17.54,60.0-70.0
60.0,1847.0,0.28,1.82,9.25,2.56,0.43,1.03,17.54,60.0-70.0
60.0,0.0,-1.6,0.39,6.84,1.93,2.75,-0.68,17.54,60.0-70.0
60.0,301.0,0.25,-0.77,8.32,-0.05,4.61,-0.83,17.57,60.0-70.0
60.0,1765.0,-1.43,-4.03,9.23,-3.44,6.64,-3.73,17.58,60.0-70.0
60.0,2602.0,-0.14,0.5,12.04,-0.45,-7.71,2.88,17.55,60.0-70.0
60.0,2225.0,0.26,2.63,11.38,1.61,-5.14,0.95,17.54,60.0-70.0
60.0,816.0,-0.37,1.88,10.34,3.35,-2.67,2.49,17.54,60.0-70.0
60.0,279.0,-0.42,0.55,8.67,0.39,-0.17,0.27,17.55,60.0-70.0
60.0,842.0,-0.3,-2.48,9.26,-2.87,1.94,-2.77,17.53,60.0-70.0
60.0,2282.0,0.68,-0.49,11.04,-1.39,-0.49,0.71,17.55,60.0-70.0
