Speed,Voice,Acceleration X,Acceleration Y,Acceleration Z,Gyro X,Gyro Y,Gyro Z,Temperature,Speed_Range
60.0,1470.0,0.23,-0.17,10.08,0.06,0.2,0.65,17.7,60.0-70.0
60.0,1410.0,-0.23,0.36,10.1,0.1,0.3,-0.07,17.7,60.0-70.0
60.0,1356.0,-0.53,-0.12,9.46,-0.08,1.04,-1.59,17.7,60.0-70.0
60.0,1501.0,-0.04,-0.13,9.98,0.53,-1.62,-1.38,17.7,60.0-70.0
60.0,1525.0,0.16,0.02,10.13,0.54,-0.08,-0.47,17.69,60.0-70.0
60.0,994.0,-0.17,0.28,9.98,0.13,0.38,-0.69,17.7,60.0-70.0
60.0,1457.0,-0.61,-0.5,9.29,-0.25,1.19,-1.06,17.69,60.0-70.0
60.0,1175.0,0.38,-0.66,9.98,-0.59,-2.3,0.94,17.7,60.0-70.0
60.0,1563.0,0.22,0.15,10.04,-0.26,0.78,2.14,17.71,60.0-70.0
60.0,1201.0,-0.23,0.26,9.72,0.07,1.14,0.4,17.7,60.0-70.0
60.0,1452.0,-0.6,-0.42,9.39,-0.42,0.01,0.25,17.71,60.0-70.0
60.0,1265.0,0.21,-0.37,9.89,0.19,-0.14,0.14,17.73,60.0-70.0
60.0,901.0,-0.09,0.2,9.44,0.57,0.99,-1.18,17.72,60.0-70.0
60.0,1349.0,-0.43,-0.56,9.47,-0.01,0.72,-1.99,17.71,60.0-70.0
60.0,1287.0,0.53,-0.31,10.21,-0.02,-2.3,-0.59,17.69,60.0-70.0
60.0,1264.0,-0.19,0.63,9.51,0.12,1.3,0.22,17.72,60.0-70.0
60.0,1157.0,-0.09,-0.64,9.84,-0.68,-0.2,-0.48,17.71,60.0-70.0
60.0,931.0,0.21,-0.83,10.65,-0.86,-1.88,1.14,17.72,60.0-70.0
60.0,1348.0,-0.29,0.62,10.3,0.24,0.06,2.13,17.72,60.0-70.0
60.0,1808.0,-0.35,-0.1,9.4,0.27,-0.15,-0.19,17.7,60.0-70.0
60.0,1008.0,0.82,-0.42,9.83,0.07,-2.32,0.63,17.69,60.0-70.0
60.0,1310.0,0.38,0.79,10.26,0.94,-0.12,0.33,17.71,60.0-70.0
60.0,1050.0,-0.81,0.0,9.1,0.65,2.41,-2.08,17.7,60.0-70.0
60.0,586.0,0.29,-0.08,9.61,1.0,-1.83,-0.27,17.72,60.0-70.0
60.0,908.0,0.48,1.07,9.93,1.0,0.66,0.42,17.73,60.0-70.0
60.0,1313.0,-0.71,-0.39,9.82,-0.1,-0.5,-0.13,17.7,60.0-70.0
60.0,1090.0,0.06,-0.26,9.49,0.33,-1.45,0.59,17.69,60.0-70.0
60.0,966.0,0.46,0.81,10.1,0.56,0.23,1.0,17.69,60.0-70.0
60.0,1243.0,-0.69,-0.29,9.74,0.18,0.18,0.01,17.69,60.0-70.0
60.0,1613.0,0.09,-0.44,9.9,-0.23,-0.9,0.82,17.69,60.0-70.0
60.0,1037.0,0.24,0.65,10.0,0.67,0.52,-0.24,17.72,60.0-70.0
60.0,1121.0,-0.37,-0.01,9.81,0.62,-0.5,-0.66,17.7,60.0-70.0
60.0,1047.0,0.04,0.21,10.02,0.53,-0.29,0.77,17.69,60.0-70.0
60.0,1315.0,-0.63,-0.66,9.26,-0.77,2.41,-1.56,17.7,60.0-70.0
60.0,708.0,0.06,0.41,9.54,0.79,-1.25,0.36,17.7,60.0-70.0
60.0,1514.0,0.5,1.27,10.08,0.44,0.05,2.04,17.72,60.0-70.0
60.0,1200.0,-1.03,-0.91,9.3,-0.83,2.01,-0.77,17.71,60.0-70.0
60.0,1319.0,0.29,-1.25,9.99,-0.69,-1.86,0.5,17.7,60.0-70.0
60.0,873.0,0.45,1.71,10.01,1.05,0.32,1.01,17.7,60.0-70.0
60.0,1137.0,-0.71,-0.05,9.48,0.18,0.3,-0.62,17.68,60.0-70.0
60.0,1255.0,0.16,-0.74,9.88,-0.17,-0.34,0.11,17.71,60.0-70.0
60.0,1069.0,-0.52,-1.27,9.35,-0.94,2.58,-2.45,17.72,60.0-70.0
60.0,852.0,-0.0,0.87,9.58,1.29,-1.33,0.4,17.68,60.0-70.0
60.0,1355.0,0.55,1.26,10.09,0.71,-0.14,2.08,17.69,60.0-70.0
60.0,1164.0,-1.01,-1.72,9.26,-1.42,2.18,-0.94,17.69,60.0-70.0
60.0,1126.0,0.18,-1.76,9.99,-1.09,-1.48,0.62,17.69,60.0-70.0
60.0,763.0,0.59,2.24,10.49,1.31,-0.18,1.85,17.7,60.0-70.0
60.0,1296.0,-0.93,0.83,9.26,0.65,0.14,0.54,17.71,60.0-70.0
60.0,1328.0,0.35,-0.51,10.2,-0.1,-0.09,0.47,17.71,60.0-70.0
60.0,1310.0,-0.95,-2.27,8.67,-1.47,3.51,-3.36,17.69,60.0-70.0
60.0,941.0,-0.35,1.5,10.41,1.95,-3.51,0.54,17.69,60.0-70.0
60.0,1038.0,0.58,2.67,9.95,2.24,0.69,1.88,17.71,60.0-70.0
60.0,1041.0,-1.31,-0.85,9.29,-0.95,-0.15,-0.24,17.69,60.0-70.0
60.0,1490.0,0.23,-2.17,9.82,-1.04,1.04,0.3,17.7,60.0-70.0
60.0,1425.0,-0.48,1.67,10.34,0.16,0.11,0.4,17.69,60.0-70.0
60.0,899.0,0.66,2.07,10.73,2.27,-3.46,2.68,17.69,60.0-70.0
60.0,1105.0,-0.01,2.41,9.31,1.98,1.13,2.54,17.7,60.0-70.0
60.0,832.0,-1.02,-2.42,9.7,-2.14,-0.28,-1.76,17.68,60.0-70.0
60.0,1442.0,1.2,-0.1,10.32,0.54,-1.62,-0.18,17.7,60.0-70.0
60.0,1710.0,-0.68,2.43,10.76,0.51,-1.69,0.16,17.7,60.0-70.0
60.0,765.0,0.96,2.12,10.64,2.83,-2.59,2.04,17.7,60.0-70.0
60.0,633.0,-0.69,1.73,8.82,1.35,1.04,1.69,17.72,60.0-70.0
60.0,1267.0,-0.58,-0.97,8.78,-1.1,2.79,-2.69,17.71,60.0-70.0
60.0,1853.0,1.09,0.33,10.7,0.42,-2.09,1.29,17.71,60.0-70.0
60.0,1409.0,-0.55,2.52,10.84,0.3,-2.73,1.43,17.71,60.0-70.0
60.0,448.0,0.92,1.99,10.84,3.17,-2.55,2.78,17.69,60.0-70.0
60.0,711.0,-0.5,-2.37,8.87,-0.31,3.6,-1.08,17.7,60.0-70.0
60.0,1487.0,-0.58,-1.04,8.59,-0.92,2.98,-3.23,17.71,60.0-70.0
60.0,2047.0,1.15,0.13,11.0,0.24,-1.77,0.5,17.7,60.0-70.0
60.0,1031.0,-0.67,2.3,10.67,0.16,-2.44,0.48,17.68,60.0-70.0
60.0,338.0,-0.64,-2.51,9.28,-2.48,-0.38,-2.05,17.72,60.0-70.0
60.0,483.0,-0.23,-2.08,9.25,-0.05,4.21,-0.76,17.72,60.0-70.0
60.0,1616.0,-1.19,-1.85,7.8,-1.71,3.97,-2.91,17.73,60.0-70.0
60.0,2352.0,1.39,-0.58,11.0,-0.8,-1.43,0.59,17.72,60.0-70.0
60.0,992.0,0.17,2.09,10.06,2.18,0.41,1.96,17.71,60.0-70.0
60.0,603.0,-1.07,-0.83,8.29,-0.46,-1.39,-0.88,17.7,60.0-70.0
60.0,749.0,0.9,-1.45,9.65,0.15,2.06,-0.53,17.7,60.0-70.0
60.0,1628.0,-1.93,-2.86,8.11,-1.56,5.26,-3.56,17.72,60.0-70.0
60.0,2121.0,0.05,1.74,10.78,1.63,-6.03,2.66,17.72,60.0-70.0
60.0,944.0,1.44,2.34,11.07,2.01,-0.95,1.82,17.71,60.0-70.0
60.0,538.0,-1.07,0.53,8.87,1.26,-1.13,1.01,17.73,60.0-70.0
60.0,847.0,0.56,-0.48,9.84,-0.33,-1.07,0.79,17.73,60.0-70.0
60.0,1569.0,0.39,0.07,9.93,-0.69,3.48,-2.01,17.72,60.0-70.0
60.0,1888.0,-0.02,0.8,10.11,0.51,-4.09,2.01,17.74,60.0-70.0
60.0,877.0,0.96,2.37,11.34,1.17,-2.23,1.05,17.74,60.0-70.0
60.0,1200.0,-0.59,1.73,10.19,3.18,-1.59,1.66,17.71,60.0-70.0
60.0,1089.0,-0.99,-1.04,8.35,0.27,3.23,-0.88,17.72,60.0-70.0
60.0,2927.0,0.38,-1.39,8.86,-1.46,2.93,-3.14,17.7,60.0-70.0
60.0,1745.0,0.5,-0.42,11.14,-0.74,-1.79,1.0,17.7,60.0-70.0
60.0,1805.0,-0.58,2.05,10.77,0.65,-1.43,0.48,17.7,60.0-70.0
60.0,350.0,-0.3,-1.41,8.47,-0.89,0.17,-0.89,17.7,60.0-70.0
60.0,173.0,0.29,-1.06,9.23,0.51,3.23,0.08,17.7,60.0-70.0
60.0,1735.0,-1.59,-2.95,8.57,-2.32,3.94,-3.04,17.7,60.0-70.0
60.0,2159.0,0.3,-0.61,9.66,-0.66,0.5,-0.16,17.7,60.0-70.0
60.0,1879.0,1.22,2.16,11.12,1.69,-1.85,1.26,17.72,60.0-70.0
60.0,682.0,-0.93,0.88,9.09,2.19,-1.08,0.53,17.7,60.0-70.0
60.0,766.0,-0.1,0.05,9.16,0.27,-0.44,0.1,17.72,60.0-70.0
60.0,1384.0,-0.91,-3.51,9.45,-2.84,3.08,-3.0,17.7,60.0-70.0
60.0,2481.0,0.19,0.32,11.04,-0.17,-3.13,1.93,17.71,60.0-70.0
60.0,2929.0,-0.1,2.46,10.94,0.79,-2.75,0.95,17.72,60.0-70.0
60.0,146.0,0.12,2.05,11.22,3.03,-3.65,3.29,17.72,60.0-70.0
60.0,771.0,-0.22,1.14,9.54,1.2,-0.4,1.41,17.7,60.0-70.0
60.0,1267.0,-0.98,-2.77,8.5,-2.61,2.75,-3.03,17.7,60.0-70.0
60.0,1883.0,0.98,-0.41,10.49,-1.27,-0.17,0.37,17.71,60.0-70.0
60.0,1189.0,0.09,1.17,10.64,0.44,1.16,-1.27,17.71,60.0-70.0
60.0,715.0,0.25,1.29,10.65,0.91,-5.84,3.03,17.72,60.0-70.0
60.0,819.0,-0.16,-0.18,8.69,0.19,0.66,-0.07,17.7,60.0-70.0
60.0,833.0,-0.77,-3.55,9.3,-2.98,3.95,-3.21,17.69,60.0-70.0
60.0,1533.0,-1.04,-0.71,8.19,0.54,5.58,-0.68,17.7,60.0-70.0
60.0,2015.0,0.25,-1.8,9.03,-2.22,2.2,-2.74,17.71,60.0-70.0
60.0,2131.0,0.34,2.16,11.07,3.03,-4.5,3.17,17.7,60.0-70.0
60.0,0.0,0.15,1.13,9.98,1.28,-1.59,1.17,17.7,60.0-70.0
60.0,368.0,-0.53,-0.41,8.25,0.83,-0.38,-0.6,17.72,60.0-70.0
60.0,1674.0,0.16,-0.14,8.72,1.22,2.41,0.04,17.71,60.0-70.0
60.0,2433.0,0.4,0.58,10.07,0.27,1.94,-1.58,17.71,60.0-70.0
60.0,1863.0,0.31,0.41,11.02,-0.1,-4.32,2.63,17.71,60.0-70.0
60.0,967.0,0.5,2.05,11.23,0.85,-3.43,0.86,17.7,60.0-70.0
60.0,102.0,-0.55,1.84,10.9,3.15,-2.67,2.43,17.7,60.0-70.0
60.0,237.0,-0.87,-0.44,8.43,1.02,5.08,-0.5,17.7,60.0-70.0
60.0,1399.0,-0.12,-2.18,8.91,-2.28,1.8,-2.89,17.71,60.0-70.0
60.0,2487.0,0.51,-0.44,10.81,-1.29,-0.35,0.59,17.72,60.0-70.0
60.0,2035.0,0.47,1.27,10.17,1.05,-1.24,0.82,17.71,60.0-70.0
60.0,310.0,-0.84,-0.09,8.62,1.34,-0.12,-0.39,17.72,60.0-70.0
60.0,0.0,-0.2,-0.49,8.87,0.21,1.77,-0.02,17.69,60.0-70.0
60.0,885.0,-0.96,-3.55,9.52,-3.01,2.98,-2.94,17.71,60.0-70.0
60.0,1829.0,0.15,0.47,11.16,0.04,-3.74,2.62,17.73,60.0-70.0
60.0,2928.0,0.15,2.24,10.98,1.12,-3.39,1.01,17.7,60.0-70.0
60.0,1746.0,0.08,1.54,10.76,2.6,-3.07,2.68,17.69,60.0-70.0
60.0,1408.0,-0.25,0.54,9.41,0.38,-0.26,0.71,17.72,60.0-70.0
60.0,1135.0,-0.46,-2.17,9.44,-2.29,1.13,-2.72,17.72,60.0-70.0
60.0,1226.0,0.16,-0.19,10.51,-0.94,0.43,0.5,17.72,60.0-70.0
60.0,2545.0,0.24,1.1,10.18,0.62,-0.02,-1.23,17.74,60.0-70.0
60.0,1229.0,0.48,0.58,10.57,0.41,-3.89,2.24,17.72,60.0-70.0
60.0,1703.0,-0.39,0.12,9.07,0.53,0.87,0.21,17.72,60.0-70.0
60.0,1354.0,-0.7,-2.59,9.37,-2.39,2.11,-2.45,17.72,60.0-70.0
60.0,0.0,-0.82,-0.2,8.65,1.03,4.2,-0.21,17.7,60.0-70.0
60.0,1349.0,-0.05,-1.53,9.09,-1.42,1.34,-2.25,17.7,60.0-70.0
60.0,1645.0,0.43,1.12,10.74,1.67,-3.59,2.46,17.71,60.0-70.0
60.0,949.0,0.49,0.85,10.19,0.56,-1.08,0.89,17.71,60.0-70.0
60.0,1130.0,-0.45,-0.09,9.18,0.86,-0.63,0.08,17.71,60.0-70.0
60.0,1710.0,0.0,0.4,9.03,1.11,0.76,0.57,17.7,60.0-70.0
60.0,1488.0,0.26,0.27,9.54,0.31,1.8,-1.96,17.72,60.0-70.0
60.0,2295.0,0.16,0.04,10.7,-0.01,-1.92,1.56,17.71,60.0-70.0
60.0,2157.0,-0.24,1.47,10.41,0.44,-1.24,-0.24,17.72,60.0-70.0
60.0,643.0,-0.1,1.19,10.59,1.89,-2.55,1.9,17.71,60.0-70.0
60.0,1106.0,0.1,0.04,8.93,1.14,3.1,0.08,17.7,60.0-70.0
60.0,1251.0,-0.55,-2.13,9.5,-1.91,0.47,-2.27,17.72,60.0-70.0
60.0,1535.0,-0.26,-0.58,10.03,-0.81,0.95,0.54,17.72,60.0-70.0
60.0,2005.0,-0.07,0.59,9.18,0.67,1.85,-1.75,17.72,60.0-70.0
60.0,1461.0,-0.28,0.58,10.11,1.57,-1.37,0.66,17.7,60.0-70.0
60.0,570.0,-0.53,0.72,9.67,1.12,0.72,0.98,17.69,60.0-70.0
60.0,1169.0,-0.44,-1.95,9.72,-2.2,-0.69,-1.52,17.71,60.0-70.0
60.0,1380.0,-0.16,-0.07,9.0,1.05,3.17,0.14,17.72,60.0-70.0
60.0,1892.0,-0.51,1.34,10.34,0.54,0.26,-0.76,17.69,60.0-70.0
60.0,1971.0,0.04,1.23,10.28,1.64,-2.37,2.1,17.73,60.0-70.0
60.0,1511.0,0.74,1.0,10.18,0.27,-0.6,0.72,17.71,60.0-70.0
60.0,919.0,-0.28,0.41,9.57,1.22,-0.7,0.27,17.69,60.0-70.0
60.0,1079.0,-0.62,-0.4,9.21,-0.11,1.92,0.18,17.7,60.0-70.0
60.0,1958.0,0.35,-0.21,9.45,-0.01,1.31,-2.2,17.72,60.0-70.0
60.0,2158.0,0.18,-0.57,10.56,-0.84,-1.02,1.18,17.72,60.0-70.0
60.0,1919.0,-0.29,1.6,10.32,0.59,-1.51,-0.22,17.72,60.0-70.0
60.0,559.0,0.2,-1.41,9.28,-1.41,-0.64,-1.29,17.7,60.0-70.0
60.0,800.0,-0.24,-0.31,9.1,1.31,3.51,0.19,17.71,60.0-70.0
60.0,1487.0,-1.06,-2.84,9.4,-2.34,0.99,-2.54,17.73,60.0-70.0
60.0,2163.0,-0.23,-0.72,9.6,-0.95,1.11,0.28,17.71,60.0-70.0
60.0,2211.0,1.2,1.74,10.91,1.26,-2.23,1.17,17.7,60.0-70.0
60.0,1139.0,-0.85,1.19,9.99,2.62,-0.64,1.2,17.71,60.0-70.0
60.0,511.0,-0.72,0.82,8.76,1.05,-0.21,0.82,17.69,60.0-70.0
60.0,1053.0,0.11,-2.44,9.14,-2.4,1.14,-2.42,17.7,60.0-70.0
60.0,1875.0,0.53,-0.65,11.38,-1.26,-1.13,0.94,17.72,60.0-70.0
60.0,2258.0,-0.74,1.56,10.88,0.38,-2.11,-0.22,17.68,60.0-70.0
60.0,2043.0,0.61,1.86,10.8,1.89,-5.22,3.0,17.71,60.0-70.0
60.0,560.0,1.17,1.79,10.96,1.57,-2.73,1.67,17.72,60.0-70.0
60.0,748.0,-1.35,-3.55,9.41,-2.8,3.8,-3.17,17.72,60.0-70.0
60.0,1415.0,-1.07,-1.01,8.59,-0.78,3.86,-0.47,17.69,60.0-70.0
60.0,2064.0,0.81,-0.06,9.52,-0.34,2.38,-2.33,17.69,60.0-70.0
60.0,2362.0,0.38,0.02,11.25,-0.46,-2.34,1.82,17.7,60.0-70.0
60.0,1427.0,-0.91,0.98,9.18,1.23,-0.49,1.17,17.69,60.0-70.0
60.0,592.0,-0.12,-2.2,8.76,-2.02,0.61,-2.17,17.72,60.0-70.0
60.0,1003.0,-0.4,-0.86,8.6,0.89,5.37,-0.71,17.71,60.0-70.0
60.0,2096.0,-1.1,-3.01,9.0,-2.6,2.52,-3.29,17.69,60.0-70.0
60.0,2641.0,0.74,1.61,10.68,1.57,-5.51,3.17,17.7,60.0-70.0
60.0,1907.0,1.16,1.85,11.12,1.47,-2.98,1.41,17.69,60.0-70.0
60.0,384.0,-1.08,1.24,9.48,3.02,-0.53,1.01,17.68,60.0-70.0
60.0,317.0,-0.7,0.83,7.89,1.12,0.52,0.63,17.71,60.0-70.0
60.0,1488.0,0.9,-0.89,9.5,-1.15,1.78,-2.57,17.71,60.0-70.0
60.0,2338.0,0.52,-0.63,11.96,-1.32,-1.91,1.35,17.72,60.0-70.0
60.0,2639.0,-0.49,1.96,11.15,0.42,-4.36,0.28,17.69,60.0-70.0
60.0,1219.0,1.0,2.46,11.63,2.51,-7.07,3.59,17.69,60.0-70.0
60.0,638.0,0.26,-0.9,8.32,0.85,6.18,-0.72,17.67,60.0-70.0
60.0,832.0,-1.96,-3.99,8.48,-3.1,5.86,-3.88,17.69,60.0-70.0
60.0,2096.0,-0.42,-1.84,8.97,-2.11,3.45,-0.92,17.71,60.0-70.0
60.0,2754.0,1.15,-0.49,10.73,-1.38,1.74,-2.56,17.7,60.0-70.0
60.0,2020.0,-0.86,2.54,10.02,4.54,-2.35,2.22,17.71,60.0-70.0
60.0,169.0,-1.26,1.7,7.52,2.21,0.35,1.18,17.69,60.0-70.0
60.0,674.0,-0.06,-2.91,8.36,-2.46,3.86,-3.0,17.7,60.0-70.0
60.0,1895.0,-1.38,-1.89,8.06,0.56,9.43,-1.37,17.7,60.0-70.0
60.0,2833.0,-0.53,2.12,11.66,0.33,-5.71,0.6,17.69,60.0-70.0
60.0,2519.0,1.07,2.77,11.56,2.88,-8.27,4.19,17.7,60.0-70.0
60.0,742.0,0.87,2.36,10.59,2.95,-2.26,2.02,17.69,60.0-70.0
60.0,668.0,-1.45,0.79,7.62,2.25,0.27,0.04,17.69,60.0-70.0
60.0,1585.0,-0.32,-1.03,9.0,-1.64,2.87,-0.48,17.69,60.0-70.0
60.0,2480.0,1.39,0.07,10.95,-0.77,0.98,-2.05,17.68,60.0-70.0
60.0,2694.0,0.04,0.3,11.82,-0.62,-5.46,2.53,17.68,60.0-70.0
60.0,1600.0,0.5,2.79,11.37,1.38,-6.53,1.38,17.69,60.0-70.0
60.0,0.0,-0.11,-3.12,8.4,-2.8,4.0,-3.23,17.69,60.0-70.0
60.0,919.0,-0.76,-1.43,8.31,0.62,8.03,-1.24,17.67,60.0-70.0
60.0,2112.0,-0.7,-2.93,8.75,-3.0,3.55,-3.33,17.66,60.0-70.0
60.0,2928.0,0.81,-0.71,11.08,-1.99,-0.99,0.62,17.67,60.0-70.0
60.0,2301.0,0.96,2.0,10.45,2.31,-2.27,1.52,17.68,60.0-70.0
60.0,147.0,-1.58,0.77,7.98,2.6,1.07,0.14,17.69,60.0-70.0
60.0,624.0,-0.33,-0.03,7.93,0.59,2.7,-0.07,17.69,60.0-70.0
60.0,1684.0,-0.83,-3.75,9.13,-3.3,5.87,-3.55,17.69,60.0-70.0
60.0,2704.0,0.2,-0.12,12.1,-1.13,-5.23,2.27,17.69,60.0-70.0
60.0,2663.0,0.32,2.36,11.42,1.03,-6.55,0.88,17.72,60.0-70.0
60.0,1528.0,0.6,2.41,11.28,3.31,-5.88,3.3,17.68,60.0-70.0
60.0,529.0,0.03,1.78,9.82,2.07,-2.05,1.43,17.69,60.0-70.0
60.0,1167.0,-1.33,-3.29,8.98,-3.13,4.61,-3.41,17.69,60.0-70.0
60.0,2009.0,-0.12,-1.19,9.72,-1.67,2.33,-0.14,17.69,60.0-70.0
60.0,2799.0,0.64,-0.0,10.54,-0.55,0.84,-1.69,17.68,60.0-70.0
60.0,2453.0,0.38,-0.1,11.71,-0.8,-4.72,2.14,17.69,60.0-70.0
60.0,1284.0,-1.11,1.46,8.28,1.99,1.02,0.92,17.72,60.0-70.0
60.0,587.0,-0.17,-1.87,8.32,-1.74,2.3,-2.27,17.71,60.0-70.0
60.0,1294.0,-0.73,-0.82,8.24,0.88,7.2,-0.79,17.68,60.0-70.0
60.0,2473.0,-1.04,-3.14,8.73,-2.72,3.42,-3.21,17.69,60.0-70.0
60.0,2927.0,1.02,1.84,11.15,1.76,-6.76,3.53,17.69,60.0-70.0
60.0,2078.0,1.02,2.08,10.92,1.78,-3.62,1.84,17.68,60.0-70.0
60.0,428.0,-1.0,1.15,9.11,2.68,-1.27,1.09,17.68,60.0-70.0
60.0,946.0,-0.67,0.13,8.15,0.6,1.97,0.28,17.71,60.0-70.0
60.0,2098.0,0.96,-0.5,9.93,-0.86,1.02,-2.37,17.68,60.0-70.0
60.0,2809.0,0.68,0.04,12.34,-1.13,-4.36,2.11,17.68,60.0-70.0
60.0,2289.0,-0.37,2.78,11.53,1.43,-4.99,0.86,17.71,60.0-70.0
60.0,739.0,0.52,2.66,10.83,3.49,-6.12,3.67,17.69,60.0-70.0
60.0,427.0,-0.02,-1.07,8.33,0.8,6.91,-0.92,17.69,60.0-70.0
60.0,1629.0,-1.27,-3.73,9.48,-3.5,3.91,-3.18,17.68,60.0-70.0
60.0,2659.0,-0.3,-0.25,9.64,-0.98,2.04,0.37,17.69,60.0-70.0
60.0,2652.0,1.15,0.4,10.72,-0.13,-0.9,-1.27,17.67,60.0-70.0
60.0,1840.0,-1.25,1.56,9.81,3.82,-0.73,1.41,17.69,60.0-70.0
60.0,683.0,-1.21,0.32,8.18,0.59,1.65,0.01,17.68,60.0-70.0
60.0,898.0,0.23,-2.27,8.06,-1.81,2.87,-2.91,17.68,60.0-70.0
60.0,1846.0,-0.28,-0.5,8.29,1.22,6.87,-0.8,17.68,60.0-70.0
60.0,2814.0,-0.27,1.84,10.97,1.02,-2.49,-0.21,17.7,60.0-70.0
60.0,2530.0,0.87,1.33,10.67,1.37,-5.92,3.2,17.7,60.0-70.0
60.0,1488.0,0.88,1.58,10.65,1.11,-3.49,1.03,17.7,60.0-70.0
60.0,373.0,-1.07,1.34,9.84,3.2,-1.22,1.24,17.69,60.0-70.0
60.0,1270.0,-0.98,-0.71,8.47,0.12,5.45,-0.36,17.71,60.0-70.0
60.0,2121.0,0.62,-1.2,9.48,-1.17,1.07,-2.37,17.7,60.0-70.0
60.0,2926.0,0.6,-0.86,11.66,-1.71,-1.85,1.18,17.69,60.0-70.0
60.0,2452.0,-0.51,1.71,11.01,0.76,-2.44,-0.4,17.68,60.0-70.0
60.0,497.0,-0.17,-0.5,8.17,0.36,0.24,-1.15,17.69,60.0-70.0
60.0,640.0,-0.03,-0.09,8.24,1.38,4.35,-0.1,17.7,60.0-70.0
60.0,1535.0,-1.14,-3.58,9.32,-3.23,3.16,-3.11,17.69,60.0-70.0
60.0,2389.0,-0.87,-0.95,8.68,-0.66,4.73,-0.33,17.68,60.0-70.0
60.0,2501.0,0.74,2.06,11.31,0.89,-4.55,1.23,17.68,60.0-70.0
60.0,1363.0,-0.75,2.1,10.8,3.55,-2.79,2.33,17.69,60.0-70.0
60.0,403.0,-0.87,1.19,9.02,1.43,-0.58,1.27,17.7,60.0-70.0
60.0,1285.0,-0.05,-1.67,8.38,-1.13,1.13,-2.02,17.7,60.0-70.0
60.0,1873.0,0.54,-1.1,11.14,-2.0,-0.38,0.5,17.69,60.0-70.0
60.0,2629.0,-0.01,1.51,10.84,0.56,-1.34,-0.8,17.69,60.0-70.0
60.0,2437.0,0.76,1.6,10.96,1.52,-5.54,3.12,17.7,60.0-70.0
60.0,557.0,0.91,2.26,10.89,1.63,-3.46,1.49,17.68,60.0-70.0
60.0,607.0,-1.25,-4.02,9.45,-3.85,3.69,-3.33,17.69,60.0-70.0
60.0,1719.0,-1.15,-1.12,8.42,-0.33,5.71,-0.72,17.69,60.0-70.0
60.0,2865.0,0.93,-1.18,9.73,-1.58,1.17,-2.4,17.69,60.0-70.0
60.0,2661.0,0.62,-0.56,12.03,-1.7,-2.95,1.63,17.69,60.0-70.0
60.0,1637.0,-0.73,1.38,8.71,1.84,-0.12,1.15,17.7,60.0-70.0
60.0,197.0,-0.21,-1.18,7.5,-0.4,2.06,-1.79,17.7,60.0-70.0
60.0,1226.0,-0.11,-1.17,8.14,0.51,6.33,-0.95,17.72,60.0-70.0
60.0,2399.0,-1.49,-4.12,9.33,-3.85,4.7,-3.82,17.72,60.0-70.0
60.0,2927.0,0.65,1.56,11.28,1.03,-7.28,3.49,17.7,60.0-70.0
60.0,2000.0,1.0,2.68,11.13,2.13,-5.02,1.67,17.67,60.0-70.0
60.0,112.0,-1.21,1.96,9.58,3.99,-1.07,1.88,17.69,60.0-70.0
60.0,733.0,-1.07,0.63,8.01,1.09,1.43,0.53,17.7,60.0-70.0
60.0,1196.0,-0.87,-0.26,9.41,-0.33,0.41,-0.82,17.46,60.0-70.0
60.0,878.0,0.18,-0.25,9.85,-0.07,-0.14,0.11,17.47,60.0-70.0
60.0,877.0,-0.15,-0.22,9.39,0.24,2.29,-0.05,17.47,60.0-70.0
60.0,960.0,-0.73,-0.02,9.21,0.31,2.41,-2.05,17.48,60.0-70.0
60.0,1072.0,-0.6,-0.03,9.78,-0.11,-0.02,-1.58,17.49,60.0-70.0
60.0,1219.0,0.4,0.15,10.0,0.64,-0.9,-0.63,17.45,60.0-70.0
60.0,1023.0,-0.09,0.34,9.64,0.89,1.63,-0.62,17.45,60.0-70.0
60.0,1306.0,-0.66,-0.4,9.31,0.07,1.16,-1.06,17.47,60.0-70.0
60.0,1106.0,-0.28,0.58,9.61,0.91,-1.19,0.76,17.47,60.0-70.0
60.0,1226.0,0.12,0.47,10.24,0.25,-0.52,2.45,17.49,60.0-70.0
60.0,939.0,-0.18,0.1,10.27,-0.23,0.08,0.94,17.47,60.0-70.0
60.0,1031.0,-0.35,-0.27,9.18,0.06,-0.5,0.3,17.46,60.0-70.0
60.0,1115.0,0.06,-0.49,10.18,-0.42,-1.97,0.27,17.47,60.0-70.0
60.0,1038.0,-0.04,0.34,9.79,0.65,2.04,-0.65,17.47,60.0-70.0
60.0,1411.0,-0.94,-0.5,9.62,-0.13,0.85,-1.87,17.45,60.0-70.0
60.0,1328.0,0.31,-0.16,10.1,-0.07,-1.89,-0.56,17.48,60.0-70.0
60.0,1232.0,0.68,0.43,10.61,0.22,0.58,0.43,17.48,60.0-70.0
60.0,1470.0,-0.88,-0.18,9.68,0.27,0.03,-0.51,17.47,60.0-70.0
60.0,1017.0,0.4,-0.32,9.91,-0.62,-2.81,1.47,17.44,60.0-70.0
60.0,1086.0,0.52,0.58,10.27,-0.1,0.09,1.43,17.46,60.0-70.0
60.0,1247.0,-0.63,-0.13,9.11,0.16,1.86,-0.62,17.48,60.0-70.0
60.0,954.0,0.58,-0.31,9.85,0.54,-1.85,0.59,17.47,60.0-70.0
60.0,1138.0,0.3,0.71,9.95,0.88,0.27,0.1,17.46,60.0-70.0
60.0,1290.0,-0.58,-0.73,9.9,-0.28,-0.81,-1.26,17.47,60.0-70.0
60.0,1327.0,0.43,-0.11,9.74,0.89,-1.57,-0.22,17.48,60.0-70.0
60.0,994.0,0.31,0.75,10.04,0.5,0.43,0.14,17.47,60.0-70.0
60.0,1278.0,-0.67,-0.56,9.82,-0.19,-0.34,-0.25,17.47,60.0-70.0
60.0,1520.0,0.11,-0.47,9.86,-0.62,-0.44,1.24,17.45,60.0-70.0
60.0,924.0,0.18,0.78,9.92,0.09,-0.09,0.97,17.48,60.0-70.0
60.0,1151.0,-0.34,-0.45,9.81,-0.16,-0.52,0.25,17.49,60.0-70.0
60.0,1207.0,0.05,-0.27,9.88,0.1,0.35,0.72,17.48,60.0-70.0
60.0,1403.0,-0.69,-0.59,9.21,-0.52,2.49,-2.11,17.49,60.0-70.0
60.0,784.0,0.07,0.54,9.53,1.06,-1.71,-0.21,17.48,60.0-70.0
60.0,1291.0,0.41,0.72,9.88,0.56,0.52,0.48,17.47,60.0-70.0
60.0,1088.0,-0.98,-1.47,9.14,-0.83,2.46,-2.1,17.46,60.0-70.0
60.0,1153.0,0.27,-1.06,10.11,-0.43,-1.89,0.51,17.47,60.0-70.0
60.0,854.0,0.38,1.75,10.05,0.94,0.41,1.87,17.46,60.0-70.0
60.0,1149.0,-0.99,-0.84,9.24,-0.63,0.37,0.14,17.45,60.0-70.0
60.0,1358.0,0.33,-1.31,9.72,-0.81,0.32,0.59,17.47,60.0-70.0
60.0,1149.0,-0.47,-1.18,9.17,-1.04,2.87,-2.34,17.47,60.0-70.0
60.0,799.0,0.11,1.25,9.61,1.69,-1.88,0.77,17.47,60.0-70.0
60.0,1007.0,0.27,0.72,9.83,0.65,0.4,0.6,17.48,60.0-70.0
60.0,1141.0,-1.19,-2.66,9.38,-1.55,2.36,-3.0,17.47,60.0-70.0
60.0,1310.0,0.11,-1.53,9.85,-0.71,-0.89,-0.54,17.46,60.0-70.0
60.0,1360.0,0.61,2.48,10.56,1.43,-0.31,1.63,17.48,60.0-70.0
60.0,631.0,-0.62,0.4,8.83,0.67,0.44,1.09,17.48,60.0-70.0
60.0,693.0,0.21,-1.06,9.82,-0.84,0.26,0.85,17.46,60.0-70.0
60.0,1525.0,-0.82,-3.39,8.56,-2.22,3.68,-2.89,17.46,60.0-70.0
60.0,1683.0,-0.68,2.08,10.79,1.87,-4.9,2.6,17.48,60.0-70.0
60.0,762.0,1.14,2.23,10.57,1.93,0.55,1.81,17.48,60.0-70.0
60.0,651.0,-1.36,-0.65,8.28,0.16,0.46,-0.72,17.46,60.0-70.0
60.0,1125.0,0.58,-2.09,10.28,-0.92,0.52,-1.34,17.47,60.0-70.0
60.0,1449.0,-0.35,1.85,10.41,0.86,2.4,-1.18,17.48,60.0-70.0
60.0,1649.0,-0.44,2.26,10.85,1.92,-5.94,2.92,17.46,60.0-70.0
60.0,260.0,1.13,1.9,10.37,1.89,1.43,2.07,17.49,60.0-70.0
60.0,506.0,-1.51,-0.88,8.05,-0.28,-0.14,-0.02,17.48,60.0-70.0
60.0,1659.0,0.66,0.21,10.15,-0.25,-2.11,1.09,17.47,60.0-70.0
60.0,1638.0,0.09,1.43,10.4,0.33,2.26,-0.65,17.47,60.0-70.0
60.0,1566.0,-0.04,1.71,10.43,1.55,-5.77,2.97,17.47,60.0-70.0
60.0,177.0,1.14,1.92,10.77,1.8,0.11,0.89,17.5,60.0-70.0
60.0,511.0,-1.3,-3.55,9.31,-2.13,3.78,-3.64,17.47,60.0-70.0
60.0,1438.0,-0.32,0.27,9.14,0.54,0.53,-0.1,17.47,60.0-70.0
60.0,1808.0,0.43,0.59,9.97,-0.2,2.23,-1.84,17.5,60.0-70.0
60.0,1605.0,0.21,0.76,11.03,0.27,-4.36,2.56,17.49,60.0-70.0
60.0,407.0,-0.58,-0.2,9.37,-0.68,-0.03,0.34,17.45,60.0-70.0
60.0,749.0,-0.42,-2.9,9.15,-2.37,1.45,-2.1,17.46,60.0-70.0
60.0,1151.0,-0.08,-0.38,9.0,0.94,3.45,-0.07,17.46,60.0-70.0
60.0,1774.0,-0.67,-1.55,8.8,-1.55,2.06,-2.46,17.47,60.0-70.0
60.0,1670.0,0.38,1.38,10.44,2.3,-4.03,2.48,17.48,60.0-70.0
60.0,1013.0,0.59,0.67,10.12,0.51,0.21,0.13,17.48,60.0-70.0
60.0,226.0,-0.8,-0.51,8.66,0.74,-0.34,-0.54,17.49,60.0-70.0
60.0,726.0,0.24,-0.21,9.54,0.31,0.82,0.07,17.5,60.0-70.0
60.0,1470.0,0.17,0.58,9.72,0.38,2.35,-1.7,17.48,60.0-70.0
60.0,1877.0,0.14,0.31,11.04,-0.04,-3.85,2.56,17.47,60.0-70.0
60.0,1328.0,-0.33,1.83,10.46,0.62,-0.92,0.39,17.47,60.0-70.0
60.0,209.0,0.03,1.33,10.64,2.48,-3.05,2.56,17.48,60.0-70.0
60.0,543.0,0.21,-0.22,9.14,1.37,3.68,-0.04,17.48,60.0-70.0
60.0,1102.0,-1.06,-2.6,9.2,-2.37,1.39,-2.65,17.48,60.0-70.0
60.0,1712.0,0.21,-0.18,9.98,-0.74,0.26,0.36,17.47,60.0-70.0
60.0,1706.0,0.14,0.78,9.66,0.91,2.29,-1.91,17.49,60.0-70.0
60.0,1341.0,-1.05,0.9,10.13,2.79,-1.5,0.85,17.49,60.0-70.0
60.0,385.0,-0.74,0.34,9.18,0.3,0.47,0.59,17.48,60.0-70.0
60.0,759.0,0.44,-2.26,8.86,-2.22,0.08,-1.78,17.48,60.0-70.0
60.0,1359.0,-0.04,0.15,8.74,1.61,4.59,0.07,17.47,60.0-70.0
60.0,1662.0,-0.73,1.59,10.09,0.99,0.69,-0.62,17.5,60.0-70.0
60.0,1777.0,0.83,0.98,10.28,1.4,-4.36,2.85,17.48,60.0-70.0
60.0,1523.0,0.6,1.06,10.5,0.16,-1.34,0.13,17.47,60.0-70.0
60.0,62.0,-0.73,1.46,10.83,3.14,-2.53,1.44,17.48,60.0-70.0
60.0,720.0,-0.62,-0.28,8.79,0.83,5.08,-0.72,17.47,60.0-70.0
60.0,1201.0,-0.5,-2.31,9.08,-1.65,1.39,-2.78,17.46,60.0-70.0
60.0,2198.0,0.28,-1.14,10.58,-2.16,0.17,0.6,17.47,60.0-70.0
60.0,2016.0,0.16,0.73,9.72,0.57,1.37,-1.52,17.48,60.0-70.0
60.0,1123.0,-0.7,1.56,10.34,3.29,-2.43,1.44,17.46,60.0-70.0
60.0,0.0,-1.46,1.39,8.32,2.1,2.81,1.15,17.49,60.0-70.0
60.0,657.0,0.51,-2.33,8.28,-2.52,-0.32,-2.3,17.47,60.0-70.0
60.0,1460.0,-0.32,-0.42,8.52,1.34,7.64,-0.86,17.48,60.0-70.0
60.0,2236.0,-0.7,1.39,10.58,0.76,-0.67,-1.08,17.48,60.0-70.0
60.0,2128.0,1.28,1.39,10.89,1.4,-7.1,3.24,17.46,60.0-70.0
60.0,1173.0,0.64,1.55,10.46,0.54,-2.95,0.51,17.47,60.0-70.0
60.0,103.0,-0.56,2.21,11.44,4.45,-3.88,2.28,17.48,60.0-70.0
60.0,204.0,-1.14,-0.78,8.76,0.59,8.51,-0.91,17.48,60.0-70.0
60.0,1535.0,-0.67,-2.6,8.87,-2.14,0.2,-2.3,17.48,60.0-70.0
60.0,2459.0,1.03,-1.09,11.06,-3.26,0.63,0.65,17.48,60.0-70.0
60.0,2064.0,0.16,0.56,10.05,0.57,0.52,-1.4,17.48,60.0-70.0
60.0,1175.0,-1.22,1.67,10.55,3.96,-3.31,1.29,17.48,60.0-70.0
60.0,16.0,-1.51,0.87,7.84,1.49,4.13,0.31,17.48,60.0-70.0
60.0,474.0,1.18,-1.8,7.86,-1.44,-1.01,-2.2,17.47,60.0-70.0
60.0,1399.0,-0.29,0.36,8.46,1.96,8.3,-0.6,17.48,60.0-70.0
60.0,2127.0,-0.48,0.91,10.07,1.08,0.49,-1.3,17.47,60.0-70.0
60.0,2000.0,0.84,0.31,11.82,-0.05,-6.87,2.98,17.48,60.0-70.0
60.0,1424.0,-0.45,1.33,10.15,0.07,-1.6,-0.02,17.49,60.0-70.0
60.0,51.0,1.03,2.55,11.13,3.89,-5.98,2.92,17.48,60.0-70.0
60.0,0.0,-0.53,0.29,8.42,1.66,8.68,-0.59,17.47,60.0-70.0
60.0,934.0,-1.34,-3.61,9.63,-2.97,0.5,-2.6,17.48,60.0-70.0
60.0,2329.0,-0.48,-1.29,9.66,-2.05,4.62,-0.56,17.46,60.0-70.0
60.0,2000.0,0.34,-1.07,9.08,-0.31,0.76,-2.42,17.47,60.0-70.0
60.0,1738.0,0.62,2.77,11.56,4.71,-6.39,2.83,17.47,60.0-70.0
60.0,460.0,-0.98,1.12,8.68,1.43,3.04,0.68,17.48,60.0-70.0
60.0,0.0,-0.23,0.07,8.38,1.69,-2.72,-0.51,17.48,60.0-70.0
60.0,605.0,-1.17,0.87,7.83,1.8,7.16,-0.02,17.49,60.0-70.0
60.0,2134.0,0.51,-0.27,9.73,0.16,0.4,-1.63,17.47,60.0-70.0
60.0,2498.0,1.29,-0.81,13.22,-2.36,-5.54,2.43,17.49,60.0-70.0
60.0,1681.0,-1.2,1.62,10.12,0.59,-1.94,-0.39,17.45,60.0-70.0
60.0,401.0,2.37,2.07,10.94,2.76,-8.61,3.53,17.48,60.0-70.0
60.0,0.0,-1.12,0.88,7.93,2.13,9.57,-0.43,17.47,60.0-70.0
60.0,857.0,-0.88,-3.56,9.51,-3.76,0.32,-2.94,17.47,60.0-70.0
60.0,1953.0,-0.86,-0.81,9.29,-0.2,8.65,-0.92,17.45,60.0-70.0
60.0,2337.0,-0.47,-2.41,8.84,-1.47,0.23,-2.24,17.47,60.0-70.0
60.0,2026.0,1.93,2.27,11.03,3.2,-8.99,3.59,17.47,60.0-70.0
60.0,1022.0,-0.04,1.13,9.44,0.79,1.53,0.56,17.46,60.0-70.0
60.0,0.0,-0.78,1.72,9.97,3.92,-4.2,1.14,17.47,60.0-70.0
60.0,365.0,-1.73,1.31,7.76,1.83,6.04,0.45,17.47,60.0-70.0
60.0,1699.0,0.11,-1.6,8.98,-0.81,0.58,-2.25,17.47,60.0-70.0
60.0,2301.0,1.18,-1.43,12.59,-3.19,-2.14,1.18,17.48,60.0-70.0
60.0,1921.0,-1.01,0.74,9.66,0.42,0.41,-1.35,17.49,60.0-70.0
60.0,1423.0,1.8,0.39,11.91,0.12,-7.1,2.72,17.48,60.0-70.0
60.0,431.0,-1.6,1.45,8.43,2.41,6.52,0.45,17.51,60.0-70.0
60.0,403.0,-0.09,-2.1,8.79,-2.17,-1.54,-2.04,17.48,60.0-70.0
60.0,1234.0,-0.43,0.03,8.45,1.12,8.19,-0.56,17.49,60.0-70.0
60.0,2109.0,-0.79,-3.25,8.79,-2.28,0.82,-2.53,17.5,60.0-70.0
60.0,2230.0,1.7,1.29,11.45,1.43,-7.9,3.32,17.49,60.0-70.0
60.0,1601.0,-0.12,1.05,10.28,-0.16,-0.9,0.4,17.46,60.0-70.0
60.0,292.0,-0.33,2.14,11.18,4.01,-5.91,2.02,17.47,60.0-70.0
60.0,4.0,-1.11,0.98,8.5,1.14,3.04,0.6,17.47,60.0-70.0
60.0,1262.0,-0.24,-2.2,8.67,-1.2,0.7,-2.4,17.47,60.0-70.0
60.0,2077.0,0.9,-1.21,11.4,-3.1,0.15,0.6,17.47,60.0-70.0
60.0,1920.0,-0.47,0.3,9.34,0.56,1.74,-1.67,17.49,60.0-70.0
60.0,1665.0,1.23,-0.31,12.1,-1.06,-6.12,2.56,17.46,60.0-70.0
60.0,814.0,-1.48,1.42,8.55,1.8,4.04,0.92,17.48,60.0-70.0
60.0,133.0,0.76,-1.31,8.61,-0.86,-2.53,-1.29,17.47,60.0-70.0
60.0,658.0,-0.67,0.87,7.95,2.41,8.53,-0.19,17.49,60.0-70.0
60.0,2064.0,-0.92,-3.36,9.2,-2.83,0.03,-2.54,17.47,60.0-70.0
60.0,2928.0,1.82,0.01,12.16,-0.34,-6.55,2.65,17.47,60.0-70.0
60.0,2076.0,-0.92,1.14,10.65,-0.34,-1.57,-0.01,17.48,60.0-70.0
60.0,541.0,0.7,2.98,11.6,4.22,-8.19,3.4,17.49,60.0-70.0
60.0,0.0,-0.31,1.68,9.29,1.57,1.82,1.3,17.48,60.0-70.0
60.0,926.0,-1.37,-3.71,8.9,-2.46,1.91,-2.8,17.48,60.0-70.0
60.0,2094.0,-0.21,-1.49,9.86,-2.74,4.5,-0.6,17.47,60.0-70.0
60.0,2359.0,0.14,-0.7,9.22,-0.26,1.63,-2.4,17.48,60.0-70.0
60.0,1922.0,1.58,-1.08,13.28,-2.84,-5.37,1.93,17.49,60.0-70.0
60.0,1069.0,-1.23,1.2,8.28,1.35,4.03,0.57,17.48,60.0-70.0
60.0,0.0,0.28,-0.27,8.04,0.74,-2.87,-1.01,17.47,60.0-70.0
60.0,530.0,-0.76,0.86,8.33,2.21,7.72,-0.11,17.48,60.0-70.0
60.0,2187.0,-0.14,-0.04,9.67,0.28,1.54,-1.84,17.49,60.0-70.0
60.0,2529.0,1.03,-0.5,12.58,-1.67,-6.58,2.6,17.45,60.0-70.0
60.0,2007.0,-0.73,1.31,10.28,0.06,-1.47,-0.27,17.49,60.0-70.0
60.0,993.0,1.58,2.23,11.27,3.23,-7.25,3.24,17.47,60.0-70.0
60.0,256.0,-0.7,0.49,8.29,2.19,8.56,-0.39,17.46,60.0-70.0
60.0,780.0,-1.21,-3.45,9.46,-2.9,-0.08,-2.43,17.48,60.0-70.0
60.0,1664.0,-0.39,-0.63,9.47,-0.98,5.32,-0.39,17.49,60.0-70.0
60.0,2417.0,0.15,-1.03,8.91,-0.19,0.92,-2.2,17.47,60.0-70.0
60.0,2022.0,0.52,2.41,11.23,3.95,-6.2,2.66,17.47,60.0-70.0
60.0,1328.0,-0.62,0.65,8.93,0.56,2.14,0.43,17.46,60.0-70.0
60.0,105.0,0.22,-0.1,9.15,1.41,-3.94,-0.25,17.47,60.0-70.0
60.0,630.0,-1.26,0.88,8.66,2.09,5.69,0.43,17.47,60.0-70.0
60.0,1718.0,-0.27,0.52,8.89,1.2,1.94,-1.43,17.46,60.0-70.0
60.0,2006.0,0.66,-0.71,11.61,-1.46,-2.46,1.91,17.47,60.0-70.0
60.0,1793.0,-1.46,0.64,9.88,0.01,1.68,-1.15,17.45,60.0-70.0
60.0,1598.0,1.01,0.49,10.61,1.78,-4.03,1.66,17.47,60.0-70.0
60.0,621.0,-0.52,2.21,8.54,3.5,4.36,1.11,17.48,60.0-70.0
60.0,1654.0,0.21,-1.61,10.05,-2.1,-3.74,-1.21,17.47,60.0-70.0
60.0,1299.0,-0.53,0.44,9.52,0.45,4.88,0.3,17.47,60.0-70.0
60.0,1261.0,-1.02,-0.83,7.79,1.14,1.92,-2.13,17.47,60.0-70.0
60.0,1598.0,0.39,0.93,10.73,1.55,-4.82,1.35,17.45,60.0-70.0
60.0,2337.0,0.85,0.04,10.12,-1.3,1.16,0.6,17.47,60.0-70.0
60.0,727.0,0.49,0.58,10.75,1.28,-4.46,0.69,17.46,60.0-70.0
60.0,1066.0,-1.44,2.26,9.66,2.65,2.33,1.87,17.47,60.0-70.0
60.0,1483.0,-0.52,-0.22,7.78,1.35,2.04,-2.4,17.44,60.0-70.0
60.0,1599.0,1.06,-1.55,11.23,-1.9,-1.21,0.74,17.47,60.0-70.0
60.0,1942.0,-1.65,0.25,9.07,-0.11,3.3,-2.3,17.48,60.0-70.0
60.0,1519.0,1.14,0.79,9.98,1.49,-3.49,1.64,17.45,60.0-70.0
60.0,1101.0,-0.1,1.55,9.13,2.5,3.74,1.06,17.48,60.0-70.0
60.0,1186.0,-0.44,-2.63,10.48,-2.58,-3.22,-1.3,17.46,60.0-70.0
60.0,1088.0,-1.05,-0.06,9.2,0.45,5.16,0.18,17.46,60.0-70.0
60.0,1893.0,-0.49,-1.64,8.36,-0.11,0.18,-2.14,17.47,60.0-70.0
60.0,2137.0,1.09,1.88,10.78,2.59,-4.55,2.54,17.48,60.0-70.0
60.0,2222.0,0.25,0.9,9.92,0.03,1.4,0.77,17.47,60.0-70.0
60.0,767.0,-0.23,1.16,10.47,2.51,-4.3,0.91,17.47,60.0-70.0
60.0,501.0,-1.46,1.46,8.78,1.86,3.3,1.05,17.47,60.0-70.0
60.0,1435.0,0.09,-0.93,8.46,0.31,1.36,-2.57,17.46,60.0-70.0
60.0,2257.0,1.17,-1.33,11.86,-2.72,-1.47,0.98,17.49,60.0-70.0
60.0,2435.0,-1.17,1.04,9.71,0.31,0.82,-1.2,17.47,60.0-70.0
60.0,1840.0,1.74,1.3,10.93,1.38,-6.23,3.11,17.46,60.0-70.0
60.0,542.0,-0.94,0.78,8.48,1.89,5.6,0.34,17.45,60.0-70.0
60.0,800.0,-0.56,-3.17,9.82,-3.19,-0.92,-2.33,17.48,60.0-70.0
60.0,1310.0,-1.28,-0.22,8.74,0.6,7.96,-0.63,17.46,60.0-70.0
60.0,2368.0,-0.34,-1.97,8.67,-0.86,0.24,-2.34,17.47,60.0-70.0
60.0,2496.0,1.54,1.9,11.16,2.59,-6.78,3.04,17.47,60.0-70.0
60.0,1906.0,0.19,0.92,9.78,0.42,0.49,0.57,17.46,60.0-70.0
60.0,266.0,-0.48,1.38,10.09,3.12,-3.59,0.82,17.45,60.0-70.0
60.0,342.0,-1.56,1.45,8.14,1.83,4.73,0.54,17.48,60.0-70.0
60.0,1427.0,0.01,-1.18,8.85,-0.25,1.11,-2.49,17.47,60.0-70.0
60.0,2435.0,1.05,-1.42,12.23,-3.03,-1.92,1.12,17.49,60.0-70.0
60.0,2662.0,-0.81,0.76,10.33,-0.02,-1.08,-1.01,17.46,60.0-70.0
60.0,1809.0,1.86,1.07,11.18,1.06,-7.28,3.18,17.45,60.0-70.0
60.0,607.0,-0.86,1.35,7.73,2.45,6.01,0.43,17.46,60.0-70.0
60.0,649.0,-0.76,-3.16,9.43,-3.07,0.7,-2.6,17.45,60.0-70.0
60.0,1418.0,-1.58,-0.89,8.48,0.39,8.93,-1.05,17.47,60.0-70.0
60.0,2799.0,-0.42,-2.41,8.38,-1.33,1.62,-2.88,17.48,60.0-70.0
60.0,2618.0,1.64,2.59,11.81,3.09,-8.18,3.61,17.46,60.0-70.0
60.0,1911.0,0.1,1.9,9.79,1.67,-0.11,1.34,17.45,60.0-70.0
60.0,0.0,-0.49,1.3,9.07,3.02,-3.24,0.62,17.47,60.0-70.0
60.0,384.0,-1.35,1.0,7.56,1.93,5.34,0.34,17.44,60.0-70.0
60.0,2032.0,0.74,-0.66,9.81,-0.49,0.32,-2.36,17.46,60.0-70.0
60.0,2830.0,1.07,-0.84,12.79,-2.22,-4.38,1.93,17.48,60.0-70.0
60.0,2483.0,-0.73,1.48,10.84,0.18,-3.97,0.05,17.47,60.0-70.0
60.0,1034.0,1.45,1.87,11.36,2.31,-7.32,3.4,17.45,60.0-70.0
60.0,458.0,-0.23,0.18,8.21,1.93,7.74,-0.37,17.47,60.0-70.0
60.0,1086.0,-1.27,-2.93,9.37,-2.16,1.24,-2.48,17.47,60.0-70.0
60.0,2304.0,-0.83,-0.21,8.92,-0.54,5.48,-0.04,17.46,60.0-70.0
60.0,2409.0,0.72,-0.04,9.25,0.35,1.07,-1.91,17.45,60.0-70.0
60.0,2238.0,-0.32,1.51,11.32,2.76,-3.45,1.79,17.48,60.0-70.0
60.0,1189.0,-1.13,0.66,9.02,0.35,0.88,0.6,17.47,60.0-70.0
60.0,1069.0,0.54,-1.07,9.31,-1.07,-2.64,-1.46,17.45,60.0-70.0
60.0,1351.0,-0.28,0.61,9.07,2.3,4.62,0.19,17.47,60.0-70.0
60.0,2331.0,-0.52,0.69,9.37,0.76,1.53,-1.7,17.48,60.0-70.0
60.0,2266.0,0.83,-0.13,10.16,-0.17,-2.85,1.84,17.46,60.0-70.0
60.0,1962.0,0.5,0.64,10.51,-0.11,-0.53,-0.18,17.47,60.0-70.0
60.0,816.0,-0.65,1.41,10.98,2.63,-1.77,1.64,17.44,60.0-70.0
60.0,1297.0,-1.19,0.38,8.27,1.61,4.85,0.48,17.46,60.0-70.0
60.0,1676.0,0.52,-1.69,8.97,-1.07,-0.58,-2.13,17.46,60.0-70.0
60.0,2264.0,0.2,-1.34,10.56,-2.22,1.63,0.4,17.46,60.0-70.0
60.0,2160.0,-0.69,0.63,9.38,0.65,1.3,-1.91,17.46,60.0-70.0
60.0,1866.0,-0.08,0.87,9.81,1.58,-2.79,0.36,17.47,60.0-70.0
60.0,835.0,-0.55,0.92,9.4,1.61,1.53,0.92,17.47,60.0-70.0
60.0,1186.0,-0.53,-2.82,10.26,-2.92,-0.98,-1.96,17.45,60.0-70.0
60.0,1681.0,-1.27,-0.27,8.13,1.03,6.39,-0.31,17.49,60.0-70.0
60.0,2595.0,-0.46,1.61,10.26,0.57,-1.88,-0.27,17.46,60.0-70.0
60.0,2322.0,0.9,1.97,11.11,2.63,-3.68,3.12,17.48,60.0-70.0
60.0,1414.0,0.22,1.25,9.79,0.76,-0.76,1.0,17.47,60.0-70.0
60.0,586.0,-0.25,1.04,9.56,2.09,-2.4,0.42,17.46,60.0-70.0
60.0,997.0,-0.64,-0.93,9.13,-1.0,4.71,-0.56,17.46,60.0-70.0
60.0,2629.0,0.38,-0.65,9.38,-0.17,0.92,-2.48,17.46,60.0-70.0
60.0,2722.0,0.55,-0.93,11.82,-2.13,-2.52,1.64,17.46,60.0-70.0
60.0,2241.0,-0.47,1.51,10.59,0.48,-2.43,-0.21,17.45,60.0-70.0
60.0,697.0,0.64,-0.72,8.31,-0.22,-0.89,-1.05,17.47,60.0-70.0
60.0,428.0,-0.24,0.37,8.2,1.9,6.09,0.19,17.47,60.0-70.0
60.0,1408.0,-1.24,-3.27,9.94,-2.98,0.98,-2.49,17.46,60.0-70.0
60.0,2462.0,-1.35,-0.36,8.66,-0.02,5.69,-0.24,17.45,60.0-70.0
60.0,2557.0,0.44,1.25,10.71,0.1,-3.92,0.21,17.45,60.0-70.0
60.0,2068.0,0.07,1.95,11.48,3.2,-3.68,2.33,17.47,60.0-70.0
60.0,590.0,-0.74,1.07,9.22,1.14,0.35,0.76,17.46,60.0-70.0
60.0,953.0,0.19,-0.22,8.53,0.45,-1.69,-0.91,17.47,60.0-70.0
60.0,1535.0,0.03,-0.92,10.04,-1.94,2.49,0.16,17.48,60.0-70.0
60.0,2496.0,0.4,0.36,9.85,0.45,0.88,-1.69,17.46,60.0-70.0
60.0,2642.0,0.51,-0.34,11.26,-1.04,-3.24,2.24,17.47,60.0-70.0
60.0,1872.0,0.01,1.38,10.67,0.12,-3.27,0.3,17.48,60.0-70.0
60.0,493.0,0.55,-2.14,9.12,-2.19,-0.99,-1.88,17.46,60.0-70.0
60.0,972.0,-0.71,0.08,8.38,1.9,7.17,-0.3,17.46,60.0-70.0
60.0,1835.0,-0.72,-2.69,9.19,-1.91,0.55,-2.66,17.49,60.0-70.0
60.0,2675.0,-0.12,-0.78,9.72,-1.68,3.13,-0.1,17.47,60.0-70.0
60.0,2452.0,0.69,1.12,10.49,0.33,-2.17,0.39,17.47,60.0-70.0
60.0,1206.0,-0.7,1.55,10.91,3.23,-2.55,1.29,17.47,60.0-70.0
