Speed,Voice,Acceleration X,Acceleration Y,Acceleration Z,Gyro X,Gyro Y,Gyro Z,Temperature,Speed_Range
60.0,1061.0,-0.81,0.11,9.62,0.5,0.21,-0.35,27.92,60.0-70.0
60.0,2138.0,-0.1,0.32,9.74,0.28,-0.98,0.35,27.92,60.0-70.0
60.0,1488.0,-0.02,-0.0,9.9,-0.75,0.25,1.14,27.94,60.0-70.0
60.0,1303.0,-0.55,-0.32,9.67,-0.69,1.01,0.6,27.94,60.0-70.0
60.0,2043.0,-0.82,0.15,9.51,0.47,-0.04,0.44,27.94,60.0-70.0
60.0,765.0,-0.07,0.53,9.73,0.18,-0.88,1.79,27.93,60.0-70.0
60.0,1514.0,-0.17,0.05,9.86,-0.25,0.89,0.75,27.93,60.0-70.0
60.0,2107.0,-0.74,-0.32,9.61,-0.51,0.97,-1.43,27.95,60.0-70.0
60.0,1680.0,-0.55,0.25,9.66,0.25,-0.98,-1.16,27.93,60.0-70.0
60.0,1131.0,-0.17,-0.29,9.76,-0.74,0.75,-0.75,27.92,60.0-70.0
60.0,1990.0,-0.91,-0.26,9.37,-0.11,1.09,-1.89,27.92,60.0-70.0
60.0,2118.0,-0.41,0.19,9.84,0.48,-1.15,-0.53,27.92,60.0-70.0
60.0,147.0,0.13,-0.41,10.12,-0.84,0.04,1.3,27.92,60.0-70.0
60.0,1909.0,-0.86,-0.17,9.63,0.19,0.91,0.12,27.92,60.0-70.0
60.0,1563.0,0.01,0.35,9.71,0.27,-0.71,1.42,27.9,60.0-70.0
60.0,1002.0,0.13,-0.38,10.2,-0.97,-0.94,1.72,27.92,60.0-70.0
60.0,1154.0,-0.53,-0.09,9.73,0.57,0.45,-0.85,27.91,60.0-70.0
60.0,1645.0,0.17,0.39,9.8,0.09,-0.4,-0.08,27.93,60.0-70.0
60.0,1863.0,-0.7,-0.58,9.51,-0.66,1.67,-1.05,27.94,60.0-70.0
60.0,0.0,-0.81,0.3,9.76,0.85,-0.34,-1.86,27.93,60.0-70.0
60.0,1782.0,0.14,0.4,10.16,-0.57,-1.5,0.58,27.9,60.0-70.0
60.0,646.0,-0.64,-0.61,9.97,-0.45,0.8,-0.43,27.92,60.0-70.0
60.0,881.0,-0.54,0.34,9.96,-0.3,-2.1,0.55,27.92,60.0-70.0
60.0,592.0,0.03,-0.07,9.65,-0.55,0.31,1.97,27.92,60.0-70.0
60.0,1720.0,-0.46,-0.29,9.71,0.68,-0.28,-0.06,27.94,60.0-70.0
60.0,2091.0,0.37,0.43,10.04,-0.51,-0.65,1.31,27.92,60.0-70.0
60.0,1133.0,-0.74,-0.45,9.45,-0.17,1.35,-0.34,27.91,60.0-70.0
60.0,980.0,-0.78,1.18,9.3,1.83,0.18,-0.63,27.93,60.0-70.0
60.0,1382.0,-0.2,-0.17,9.44,-0.92,1.81,-0.21,27.91,60.0-70.0
60.0,2325.0,-0.5,-0.26,9.8,0.73,-1.27,-1.92,27.93,60.0-70.0
60.0,1985.0,0.44,0.36,10.04,-0.8,-0.07,0.56,27.92,60.0-70.0
60.0,1088.0,-1.12,-0.73,9.7,-1.04,2.1,-0.63,27.92,60.0-70.0
60.0,527.0,0.22,0.89,9.44,1.23,-1.09,1.28,27.91,60.0-70.0
60.0,309.0,-0.63,-1.03,10.05,-2.14,0.83,0.79,27.94,60.0-70.0
60.0,1130.0,-0.56,0.89,9.78,1.8,-1.69,0.75,27.93,60.0-70.0
60.0,1451.0,0.94,0.43,10.25,-0.54,-0.94,1.54,27.92,60.0-70.0
60.0,1149.0,-1.99,-0.47,9.33,0.13,2.1,-1.07,27.9,60.0-70.0
60.0,805.0,0.58,0.73,10.0,0.13,-2.05,0.2,27.92,60.0-70.0
60.0,974.0,-1.3,-0.63,9.5,-0.3,3.24,-1.95,27.92,60.0-70.0
60.0,298.0,-1.15,0.96,9.51,2.1,-1.44,-0.84,27.93,60.0-70.0
60.0,890.0,0.6,-0.59,9.72,-1.58,1.4,0.15,27.91,60.0-70.0
60.0,953.0,-1.27,0.26,9.85,0.94,-1.5,-0.47,27.92,60.0-70.0
60.0,1565.0,0.9,0.64,10.06,-0.17,-2.28,1.86,27.93,60.0-70.0
60.0,945.0,-1.48,-0.5,9.51,-0.31,2.95,-0.11,27.94,60.0-70.0
60.0,1408.0,0.17,0.63,10.24,-0.11,-3.75,1.89,27.92,60.0-70.0
60.0,975.0,-0.85,-0.51,9.6,-0.55,3.09,-0.76,27.91,60.0-70.0
60.0,837.0,-1.65,0.95,9.44,1.57,-0.63,-0.49,27.92,60.0-70.0
60.0,752.0,0.77,-0.73,9.74,-1.56,1.47,-0.23,27.92,60.0-70.0
60.0,592.0,-1.44,0.5,9.78,1.14,-1.12,-1.66,27.94,60.0-70.0
60.0,1946.0,0.39,-0.31,9.5,-1.09,1.3,0.31,27.92,60.0-70.0
60.0,1527.0,-1.39,-0.31,9.37,0.42,2.1,-1.34,27.92,60.0-70.0
60.0,1318.0,0.34,0.47,10.01,-0.28,-2.43,1.56,27.92,60.0-70.0
60.0,654.0,-0.97,-0.37,9.55,0.04,2.34,-0.2,27.93,60.0-70.0
60.0,1220.0,-0.11,0.63,10.07,-0.22,-2.83,2.04,27.92,60.0-70.0
60.0,1695.0,0.11,-1.06,10.3,-2.28,0.37,0.58,27.92,60.0-70.0
60.0,283.0,-1.0,1.18,9.25,2.02,-0.6,0.37,27.96,60.0-70.0
60.0,673.0,0.46,-0.98,10.11,-1.99,1.01,-0.37,27.91,60.0-70.0
60.0,981.0,-1.3,1.08,9.58,1.87,-1.08,-0.79,27.89,60.0-70.0
60.0,1747.0,0.8,0.25,10.25,-1.12,-1.46,0.32,27.92,60.0-70.0
60.0,979.0,-1.59,-0.3,9.11,0.99,1.72,-1.79,27.91,60.0-70.0
60.0,2160.0,1.14,0.26,10.37,-0.98,-1.7,1.21,27.92,60.0-70.0
60.0,1243.0,-1.86,-0.24,9.04,0.9,2.04,-0.72,27.91,60.0-70.0
60.0,1060.0,0.5,0.91,9.71,1.09,-2.71,1.77,27.91,60.0-70.0
60.0,1531.0,-1.24,-0.9,9.94,-1.42,2.39,-0.14,27.92,60.0-70.0
60.0,1488.0,0.59,1.01,9.59,1.38,-2.39,1.6,27.93,60.0-70.0
60.0,1394.0,-1.34,-0.88,9.98,-1.53,2.39,-0.93,27.9,60.0-70.0
60.0,1891.0,-1.08,0.71,9.92,1.26,-1.98,-0.78,27.91,60.0-70.0
60.0,1023.0,0.2,-0.59,9.59,-1.64,1.84,-0.23,27.93,60.0-70.0
60.0,1869.0,-1.04,0.73,9.88,1.41,-1.79,-1.13,27.96,60.0-70.0
60.0,1072.0,0.18,-0.65,9.59,-1.76,1.59,0.14,27.92,60.0-70.0
60.0,1295.0,-1.79,-0.31,9.17,0.5,1.88,-1.3,27.92,60.0-70.0
60.0,1264.0,0.91,0.33,10.25,-0.74,-1.44,1.77,27.93,60.0-70.0
60.0,1203.0,-1.73,-0.33,9.18,0.42,1.73,-0.55,27.94,60.0-70.0
60.0,2210.0,0.89,0.4,10.25,-0.66,-1.53,2.01,27.95,60.0-70.0
60.0,1479.0,-1.45,-0.9,9.9,-1.7,1.98,-0.4,27.92,60.0-70.0
60.0,2027.0,0.81,1.05,9.54,1.67,-1.75,0.87,27.95,60.0-70.0
60.0,1676.0,-1.49,-0.9,9.94,-1.67,1.88,-1.42,27.94,60.0-70.0
60.0,1631.0,0.79,0.99,9.55,1.58,-1.99,0.17,27.93,60.0-70.0
60.0,859.0,0.15,-0.66,9.51,-1.74,1.78,-0.18,27.95,60.0-70.0
60.0,1042.0,-0.94,0.74,9.93,1.44,-1.9,-0.64,27.92,60.0-70.0
60.0,1595.0,0.13,-0.72,9.58,-1.81,1.96,0.63,27.91,60.0-70.0
60.0,1622.0,-0.98,0.82,9.89,1.46,-1.99,0.43,27.93,60.0-70.0
60.0,1775.0,1.07,0.29,10.31,-0.97,-1.4,2.08,27.92,60.0-70.0
60.0,1474.0,-1.88,-0.2,9.07,0.65,1.66,-0.6,27.94,60.0-70.0
60.0,2391.0,1.17,0.32,10.38,-0.89,-1.37,1.63,27.92,60.0-70.0
60.0,1791.0,-2.02,-0.2,9.04,0.82,1.7,-1.48,27.93,60.0-70.0
60.0,2624.0,0.8,0.93,9.75,1.2,-2.51,0.55,27.92,60.0-70.0
60.0,2141.0,-1.53,-0.9,9.75,-1.2,2.89,-1.86,27.93,60.0-70.0
60.0,1632.0,0.61,0.9,9.78,0.97,-2.94,0.6,27.94,60.0-70.0
60.0,1915.0,-1.22,-0.93,9.7,-1.26,3.07,-1.39,27.93,60.0-70.0
60.0,1341.0,-1.43,1.12,9.7,1.73,-1.95,0.31,27.92,60.0-70.0
60.0,1231.0,0.62,-1.03,10.03,-2.11,1.88,0.64,27.94,60.0-70.0
60.0,1535.0,-1.53,1.2,9.62,1.72,-2.11,0.99,27.95,60.0-70.0
60.0,1738.0,0.77,-1.11,10.13,-2.07,1.64,0.47,27.93,60.0-70.0
60.0,1690.0,-1.81,0.01,9.12,1.29,1.66,-0.92,27.94,60.0-70.0
60.0,1452.0,1.07,0.11,10.33,-1.52,-1.5,1.04,27.93,60.0-70.0
60.0,1695.0,-1.63,0.0,9.19,1.51,1.78,-1.8,27.95,60.0-70.0
60.0,1392.0,0.79,0.03,10.26,-1.52,-1.49,0.6,27.94,60.0-70.0
60.0,1971.0,-0.7,-0.77,9.67,-0.39,3.49,-1.94,27.92,60.0-70.0
60.0,2815.0,-0.31,0.78,9.89,0.16,-3.08,1.31,27.92,60.0-70.0
60.0,2102.0,-0.66,-0.71,9.66,-0.39,2.98,-1.07,27.93,60.0-70.0
60.0,2000.0,-0.32,0.73,9.89,-0.13,-2.86,2.0,27.94,60.0-70.0
60.0,1173.0,-0.04,-1.15,10.37,-2.39,0.82,0.23,27.92,60.0-70.0
60.0,1279.0,-0.45,1.23,9.19,2.19,-0.56,1.14,27.91,60.0-70.0
60.0,491.0,-0.34,-1.11,10.34,-2.4,0.65,-0.49,27.91,60.0-70.0
60.0,1506.0,-0.06,1.14,9.22,2.22,-0.48,0.29,27.92,60.0-70.0
60.0,1070.0,-0.17,-0.28,9.64,-1.78,-0.04,0.4,27.93,60.0-70.0
60.0,1045.0,-0.42,0.46,10.06,1.75,-0.71,-1.25,27.94,60.0-70.0
60.0,1088.0,-0.31,-0.49,9.54,-1.87,0.42,0.47,27.93,60.0-70.0
60.0,1592.0,-0.47,0.61,10.14,1.7,-1.38,-0.37,27.93,60.0-70.0
60.0,1313.0,0.39,0.48,10.05,-0.48,-1.14,1.74,27.94,60.0-70.0
60.0,1404.0,-1.54,-0.32,9.28,0.25,1.43,-0.67,27.94,60.0-70.0
60.0,1610.0,0.79,0.42,10.16,-0.66,-1.15,2.0,27.94,60.0-70.0
60.0,1488.0,-1.81,-0.18,9.06,0.65,1.41,-0.95,27.94,60.0-70.0
60.0,1964.0,0.99,0.94,9.69,1.29,-2.19,0.99,27.94,60.0-70.0
60.0,1569.0,-1.65,-0.94,9.78,-1.52,2.77,-1.6,27.94,60.0-70.0
60.0,1115.0,0.84,0.87,9.74,1.12,-2.69,0.49,27.93,60.0-70.0
60.0,1446.0,-1.51,-0.93,9.66,-1.27,3.3,-1.88,27.95,60.0-70.0
60.0,937.0,-1.25,1.08,9.82,1.87,-2.56,-0.15,27.93,60.0-70.0
60.0,1334.0,0.55,-1.1,10.14,-1.96,1.7,0.06,27.94,60.0-70.0
60.0,509.0,-1.44,1.19,9.47,1.96,-1.98,0.84,27.94,60.0-70.0
60.0,701.0,0.75,-1.16,10.24,-2.11,1.64,0.53,27.94,60.0-70.0
60.0,558.0,-1.68,0.02,9.2,1.41,1.37,-0.56,27.94,60.0-70.0
60.0,1115.0,0.89,0.05,10.25,-1.62,-1.56,1.56,27.94,60.0-70.0
60.0,1590.0,-1.25,0.18,9.39,1.67,1.14,-1.19,27.94,60.0-70.0
60.0,1160.0,0.43,-0.04,10.06,-1.78,-1.41,0.76,27.96,60.0-70.0
60.0,1021.0,-0.61,-0.7,9.56,-0.28,3.56,-2.17,27.94,60.0-70.0
60.0,2288.0,-0.4,0.69,9.7,-0.17,-2.28,0.82,27.93,60.0-70.0
60.0,1040.0,-0.71,-0.61,9.59,-0.14,2.94,-1.71,27.95,60.0-70.0
60.0,1195.0,-0.24,0.59,9.8,-0.36,-1.98,1.65,27.95,60.0-70.0
60.0,321.0,-0.71,-1.12,10.14,-2.34,0.89,-0.21,27.95,60.0-70.0
60.0,2075.0,0.32,1.08,9.26,2.07,-0.39,1.4,27.93,60.0-70.0
60.0,784.0,-1.12,-1.12,10.06,-2.26,1.08,-0.41,27.93,60.0-70.0
60.0,1108.0,0.71,1.03,9.38,1.98,-0.77,0.93,27.94,60.0-70.0
60.0,444.0,-0.18,-0.61,9.49,-1.79,1.08,0.49,27.94,60.0-70.0
60.0,0.0,-0.46,0.79,10.18,1.75,-2.45,-0.7,27.93,60.0-70.0
60.0,841.0,-0.01,-0.8,9.66,-1.76,1.61,-0.09,27.93,60.0-70.0
60.0,1429.0,-0.85,0.95,10.04,1.7,-2.71,-0.35,27.93,60.0-70.0
60.0,593.0,1.17,0.29,10.34,-0.98,-1.15,1.24,27.93,60.0-70.0
60.0,1882.0,-2.01,-0.09,9.0,0.93,1.33,-1.1,27.94,60.0-70.0
60.0,161.0,1.3,0.19,10.44,-1.24,-1.35,1.94,27.94,60.0-70.0
60.0,1424.0,-2.01,0.02,9.05,1.22,1.29,-0.56,27.93,60.0-70.0
60.0,1440.0,0.48,0.84,9.81,0.53,-3.11,1.68,27.92,60.0-70.0
60.0,1104.0,-1.05,-0.79,9.62,-0.63,3.75,-1.31,27.94,60.0-70.0
60.0,1453.0,-0.03,0.83,9.91,0.32,-3.38,1.04,27.95,60.0-70.0
60.0,450.0,-0.77,-0.79,9.6,-0.45,3.68,-1.97,27.93,60.0-70.0
60.0,1040.0,-1.22,1.27,9.12,2.34,-1.05,-0.03,27.92,60.0-70.0
60.0,1402.0,0.34,-1.23,10.46,-2.37,0.97,-0.76,27.94,60.0-70.0
60.0,1056.0,-0.91,1.22,9.13,2.19,-0.69,0.61,27.92,60.0-70.0
60.0,1056.0,-0.01,-1.19,10.42,-2.34,0.6,-0.11,27.94,60.0-70.0
60.0,1152.0,-0.71,0.33,9.8,1.66,0.36,-0.29,27.93,60.0-70.0
60.0,1121.0,-0.04,-0.29,9.69,-1.97,-0.47,1.5,27.93,60.0-70.0
60.0,1033.0,-0.5,0.57,10.0,1.83,-0.66,-0.32,27.94,60.0-70.0
60.0,1630.0,-0.18,-0.4,9.61,-1.79,0.31,0.81,27.92,60.0-70.0
60.0,2429.0,-1.2,-0.41,9.36,0.16,1.95,-1.68,27.93,60.0-70.0
60.0,1854.0,0.38,0.53,10.02,-0.43,-1.3,0.9,27.93,60.0-70.0
60.0,1421.0,-1.52,-0.29,9.22,0.44,1.47,-1.71,27.94,60.0-70.0
60.0,2789.0,0.68,0.38,10.25,-0.63,-1.11,1.21,27.94,60.0-70.0
60.0,1302.0,-1.72,-1.01,9.81,-1.78,2.01,-0.95,27.94,60.0-70.0
60.0,1843.0,1.04,0.88,9.73,1.34,-2.19,1.42,27.94,60.0-70.0
60.0,1791.0,-1.63,-0.97,9.79,-1.47,2.62,-0.72,27.94,60.0-70.0
60.0,1111.0,0.83,0.84,9.87,0.99,-2.71,1.59,27.94,60.0-70.0
60.0,1947.0,0.4,-1.02,9.97,-1.91,1.95,0.29,27.95,60.0-70.0
60.0,1514.0,-1.23,1.16,9.82,1.9,-2.83,0.26,27.94,60.0-70.0
60.0,1167.0,0.65,-1.12,10.19,-1.96,1.9,-0.47,27.94,60.0-70.0
60.0,1425.0,-1.4,1.22,9.4,2.02,-1.96,-0.05,27.93,60.0-70.0
60.0,2066.0,1.14,0.04,10.4,-1.52,-1.66,0.96,27.95,60.0-70.0
60.0,1504.0,-1.61,0.1,9.34,1.6,1.14,-1.25,27.96,60.0-70.0
60.0,1611.0,0.66,0.02,10.1,-1.67,-1.52,1.51,27.95,60.0-70.0
60.0,1664.0,-1.1,0.16,9.54,1.7,0.8,-0.55,27.95,60.0-70.0
60.0,1821.0,-0.35,0.74,9.82,-0.17,-3.01,1.89,27.94,60.0-70.0
60.0,1362.0,-0.57,-0.56,9.65,-0.11,2.94,-0.96,27.93,60.0-70.0
60.0,1914.0,-0.28,0.72,9.93,-0.14,-2.62,1.74,27.93,60.0-70.0
60.0,1531.0,-0.67,-0.55,9.66,-0.01,2.11,-1.56,27.95,60.0-70.0
60.0,1776.0,0.02,1.13,9.23,2.13,-0.59,0.37,27.95,60.0-70.0
60.0,1728.0,-0.92,-1.07,10.16,-2.26,0.85,-1.19,27.93,60.0-70.0
60.0,1836.0,0.43,1.04,9.34,1.99,-0.74,0.49,27.94,60.0-70.0
60.0,1619.0,-1.38,-1.01,9.93,-2.1,1.37,-0.93,27.94,60.0-70.0
60.0,645.0,-0.43,0.66,10.11,1.64,-1.69,-0.21,27.93,60.0-70.0
60.0,1336.0,-0.18,-0.78,9.48,-1.93,1.85,0.81,27.95,60.0-70.0
60.0,1397.0,-0.62,0.83,10.0,1.67,-2.19,0.26,27.94,60.0-70.0
60.0,2176.0,0.08,-0.92,9.71,-1.96,1.98,0.53,27.95,60.0-70.0
60.0,1729.0,-1.98,-0.08,8.99,0.88,1.14,-1.08,27.94,60.0-70.0
60.0,2000.0,1.29,0.28,10.5,-0.98,-1.27,1.22,27.95,60.0-70.0
60.0,870.0,-2.11,0.03,9.01,1.14,1.24,-1.45,27.95,60.0-70.0
60.0,2256.0,1.35,0.15,10.48,-1.3,-1.49,1.01,27.95,60.0-70.0
60.0,2066.0,-1.28,-0.81,9.57,-0.83,3.41,-1.57,27.93,60.0-70.0
60.0,2331.0,0.31,0.84,9.96,0.5,-3.76,1.39,27.95,60.0-70.0
60.0,1913.0,-0.93,-0.78,9.62,-0.58,3.53,-1.17,27.93,60.0-70.0
60.0,1471.0,0.01,0.76,9.93,0.13,-3.5,1.82,27.94,60.0-70.0
60.0,1191.0,0.48,-1.22,10.31,-2.4,1.18,0.03,27.93,60.0-70.0
60.0,1640.0,-1.08,1.23,9.21,2.09,-1.26,0.79,27.92,60.0-70.0
60.0,444.0,0.17,-1.19,10.45,-2.43,0.72,-0.49,27.93,60.0-70.0
60.0,454.0,-0.72,1.2,9.13,2.21,-0.57,0.37,27.94,60.0-70.0
60.0,1749.0,0.01,-0.23,9.68,-1.84,-0.48,0.72,27.93,60.0-70.0
60.0,823.0,-0.61,0.38,9.92,1.86,0.14,-1.08,27.94,60.0-70.0
60.0,1650.0,-0.23,-0.39,9.51,-1.84,0.25,0.73,27.94,60.0-70.0
60.0,1675.0,-0.39,0.45,10.16,1.66,-0.77,-0.52,27.93,60.0-70.0
60.0,306.0,0.26,0.49,10.04,-0.45,-1.81,1.69,27.94,60.0-70.0
60.0,913.0,-1.17,-0.34,9.43,0.24,1.35,-0.96,27.94,60.0-70.0
60.0,2194.0,0.58,0.5,10.21,-0.55,-1.37,1.77,27.93,60.0-70.0
60.0,1008.0,-1.63,-0.23,9.21,0.56,1.08,-1.11,27.93,60.0-70.0
60.0,1583.0,1.04,0.92,9.7,1.49,-1.84,0.99,27.93,60.0-70.0
60.0,2197.0,-1.85,-0.89,9.77,-1.58,2.46,-1.33,27.92,60.0-70.0
60.0,1486.0,0.99,0.94,9.8,1.38,-2.37,0.85,27.93,60.0-70.0
60.0,1696.0,-1.78,-0.85,9.63,-1.21,2.95,-1.4,27.92,60.0-70.0
60.0,1693.0,-1.07,1.05,9.78,1.64,-2.6,-0.06,27.93,60.0-70.0
60.0,619.0,0.56,-1.11,10.04,-2.1,2.08,0.03,27.94,60.0-70.0
60.0,589.0,-1.35,1.15,9.55,1.78,-2.27,0.5,27.93,60.0-70.0
60.0,339.0,0.69,-1.21,10.19,-2.25,1.7,0.11,27.94,60.0-70.0
60.0,1040.0,-1.91,0.07,9.14,1.49,1.5,-0.93,27.93,60.0-70.0
60.0,1961.0,0.88,0.01,10.33,-1.65,-1.46,1.36,27.94,60.0-70.0
60.0,1675.0,-1.5,0.15,9.32,1.69,1.53,-1.22,27.94,60.0-70.0
60.0,915.0,0.48,-0.08,10.01,-1.79,-1.18,0.99,27.93,60.0-70.0
60.0,1098.0,-0.52,-0.67,9.66,-0.07,3.29,-1.65,27.94,60.0-70.0
60.0,1771.0,-0.34,0.72,9.79,-0.08,-2.72,1.27,27.93,60.0-70.0
60.0,656.0,-0.56,-0.52,9.63,0.04,2.78,-1.43,27.93,60.0-70.0
60.0,775.0,-0.36,1.2,9.18,2.22,-0.42,0.79,27.91,60.0-70.0
60.0,794.0,-0.63,-1.13,10.29,-2.46,0.47,-0.44,27.93,60.0-70.0
60.0,1086.0,0.11,1.09,9.36,1.95,-0.74,1.01,27.94,60.0-70.0
60.0,1719.0,-1.19,-1.01,10.01,-2.22,1.04,-0.58,27.94,60.0-70.0
60.0,978.0,-0.37,0.66,10.2,1.76,-1.3,-0.31,27.93,60.0-70.0
60.0,0.0,-0.33,-0.64,9.4,-1.84,1.66,0.47,27.93,60.0-70.0
60.0,203.0,-0.47,0.78,10.07,1.67,-2.07,-0.55,27.93,60.0-70.0
60.0,746.0,-0.07,-0.83,9.56,-1.87,1.79,0.18,27.94,60.0-70.0
60.0,853.0,-1.83,-0.17,9.05,0.74,1.15,-1.43,27.94,60.0-70.0
60.0,1382.0,1.14,0.38,10.4,-0.91,-1.17,1.42,27.95,60.0-70.0
60.0,2541.0,-2.02,-0.13,9.02,0.91,1.0,-1.07,27.94,60.0-70.0
60.0,1040.0,1.4,0.16,10.57,-1.29,-1.64,1.68,27.94,60.0-70.0
60.0,944.0,-1.58,-0.81,9.54,-1.04,3.62,-1.07,27.94,60.0-70.0
60.0,1047.0,0.5,0.9,9.82,0.61,-3.18,1.51,27.92,60.0-70.0
60.0,1118.0,-1.12,-0.71,9.58,-0.68,3.67,-1.33,27.95,60.0-70.0
60.0,983.0,0.12,0.88,9.94,0.3,-3.72,1.31,27.93,60.0-70.0
60.0,1449.0,0.71,-1.22,10.23,-2.34,1.53,-0.52,27.92,60.0-70.0
60.0,1453.0,-1.27,1.24,9.12,2.13,-1.3,0.24,27.96,60.0-70.0
60.0,1695.0,0.38,-1.24,10.45,-2.37,0.86,-0.64,27.94,60.0-70.0
60.0,1669.0,-0.97,1.27,9.12,2.15,-0.94,0.58,27.94,60.0-70.0
60.0,912.0,0.23,-0.2,9.82,-1.96,-0.86,1.28,27.94,60.0-70.0
60.0,873.0,-0.76,0.31,9.78,1.76,0.45,-0.66,27.97,60.0-70.0
60.0,266.0,-0.12,-0.33,9.57,-1.94,-0.21,1.19,27.95,60.0-70.0
60.0,1853.0,-0.46,0.45,10.03,1.67,-0.36,-0.53,27.94,60.0-70.0
60.0,1853.0,0.09,0.61,10.02,-0.39,-2.08,1.51,27.94,60.0-70.0
60.0,1314.0,-1.03,-0.42,9.52,0.27,1.5,-1.48,27.94,60.0-70.0
60.0,1637.0,0.39,0.47,10.06,-0.4,-1.41,1.19,27.94,60.0-70.0
60.0,1287.0,-1.37,-0.3,9.31,0.48,1.35,-1.43,27.94,60.0-70.0
60.0,1037.0,0.79,1.01,9.62,1.7,-1.46,0.82,27.93,60.0-70.0
60.0,1189.0,-1.71,-0.95,9.79,-1.78,2.1,-1.02,27.94,60.0-70.0
60.0,1777.0,0.98,0.91,9.77,1.26,-2.33,1.25,27.92,60.0-70.0
60.0,1213.0,-1.75,-0.92,9.71,-1.49,2.66,-0.93,27.95,60.0-70.0
60.0,2083.0,-1.03,1.03,9.79,1.69,-2.3,0.24,27.93,60.0-70.0
60.0,762.0,0.46,-1.05,9.91,-2.0,2.22,0.02,27.95,60.0-70.0
60.0,1136.0,-1.23,1.07,9.66,1.73,-2.43,0.11,27.92,60.0-70.0
60.0,1440.0,0.62,-1.18,10.13,-2.14,2.04,-0.31,27.92,60.0-70.0
60.0,1339.0,-1.93,-0.0,9.13,1.34,1.4,-1.33,27.92,60.0-70.0
60.0,2145.0,1.15,-0.04,10.33,-1.68,-1.52,1.08,27.94,60.0-70.0
60.0,2093.0,-1.61,0.07,9.26,1.49,1.44,-1.17,27.93,60.0-70.0
60.0,2694.0,0.69,-0.04,10.07,-1.71,-1.24,1.4,27.94,60.0-70.0
60.0,2127.0,-0.65,-0.67,9.69,-0.28,3.44,-1.24,27.94,60.0-70.0
60.0,1744.0,-0.39,0.77,9.89,-0.11,-3.21,1.74,27.94,60.0-70.0
60.0,1933.0,-0.57,-0.56,9.63,-0.01,2.92,-1.22,27.93,60.0-70.0
60.0,2421.0,-0.36,0.7,9.85,-0.16,-2.63,1.56,27.94,60.0-70.0
60.0,2005.0,-0.4,-1.12,10.29,-2.4,0.57,-0.72,27.94,60.0-70.0
60.0,2928.0,0.03,1.16,9.25,2.18,-0.62,0.63,27.94,60.0-70.0
60.0,1141.0,-0.91,-1.07,10.13,-2.29,0.68,-0.92,27.94,60.0-70.0
60.0,1211.0,0.61,1.02,9.38,1.98,-0.91,0.75,27.93,60.0-70.0
60.0,1269.0,-0.4,-0.6,9.4,-1.88,1.17,0.61,27.93,60.0-70.0
60.0,1075.0,-0.47,0.67,10.08,1.58,-1.66,-0.17,27.93,60.0-70.0
60.0,464.0,-0.16,-0.8,9.54,-1.97,1.62,0.61,27.94,60.0-70.0
60.0,1427.0,-0.7,0.92,10.03,1.72,-2.21,0.14,27.94,60.0-70.0
60.0,2235.0,1.07,0.3,10.37,-0.92,-0.91,1.46,27.94,60.0-70.0
60.0,1472.0,-2.0,-0.17,8.98,0.83,1.23,-1.24,27.94,60.0-70.0
60.0,1859.0,1.37,0.21,10.4,-1.0,-1.18,1.24,27.93,60.0-70.0
60.0,2239.0,-2.07,-0.03,8.97,1.12,1.41,-1.3,27.93,60.0-70.0
60.0,1731.0,0.0,0.27,9.68,0.06,-0.62,1.92,27.53,60.0-70.0
60.0,1488.0,-0.13,0.03,9.78,-0.48,0.48,1.92,27.53,60.0-70.0
60.0,1037.0,-0.68,-0.24,9.55,-0.55,1.4,0.38,27.55,60.0-70.0
60.0,1535.0,-0.69,0.29,9.56,0.85,-0.39,-0.27,27.54,60.0-70.0
60.0,585.0,0.11,0.17,9.87,-0.16,-0.92,0.95,27.51,60.0-70.0
60.0,1175.0,-0.21,-0.17,9.87,-0.55,0.37,0.58,27.54,60.0-70.0
60.0,1124.0,-0.94,-0.06,9.53,-0.02,1.32,-0.52,27.53,60.0-70.0
60.0,1277.0,-0.41,0.27,9.91,0.21,-1.34,-0.49,27.52,60.0-70.0
60.0,1269.0,-0.02,-0.46,9.82,-1.18,-0.11,-0.03,27.55,60.0-70.0
60.0,1207.0,-0.6,-0.52,9.63,-0.6,0.83,-1.14,27.53,60.0-70.0
60.0,1282.0,-0.51,0.34,9.86,0.82,-0.66,-0.64,27.55,60.0-70.0
60.0,915.0,-0.03,0.03,10.15,-0.57,-1.0,1.05,27.54,60.0-70.0
60.0,1251.0,-0.56,-0.1,9.95,-0.14,0.42,0.37,27.52,60.0-70.0
60.0,1499.0,-0.44,0.63,9.89,1.43,-1.84,0.29,27.53,60.0-70.0
60.0,1673.0,0.0,0.23,9.81,-0.55,-0.97,1.04,27.55,60.0-70.0
60.0,747.0,-0.29,-0.01,9.91,0.18,0.31,0.47,27.53,60.0-70.0
60.0,967.0,-0.68,0.51,9.61,0.76,-1.12,-0.43,27.54,60.0-70.0
60.0,1607.0,0.22,-0.5,10.12,-1.47,-0.79,0.49,27.53,60.0-70.0
60.0,1139.0,-0.32,-0.15,9.91,0.48,0.8,-0.14,27.52,60.0-70.0
60.0,1136.0,-0.66,0.39,9.64,0.38,-1.15,-0.67,27.53,60.0-70.0
60.0,1731.0,0.05,-0.93,10.16,-2.26,-0.74,0.2,27.54,60.0-70.0
60.0,1919.0,-0.59,-0.28,9.78,0.1,0.51,-1.08,27.53,60.0-70.0
60.0,2013.0,-0.35,0.63,9.95,0.41,-1.63,0.4,27.53,60.0-70.0
60.0,1331.0,-0.62,-0.74,10.11,-1.94,0.11,0.27,27.52,60.0-70.0
60.0,1314.0,-1.17,0.52,9.28,0.54,0.82,-0.47,27.53,60.0-70.0
60.0,1891.0,-0.46,0.07,9.34,-0.78,0.85,1.01,27.53,60.0-70.0
60.0,1053.0,-0.37,-0.22,9.77,0.1,1.21,0.2,27.54,60.0-70.0
60.0,1754.0,0.08,0.61,9.8,0.7,-1.66,-0.0,27.55,60.0-70.0
60.0,1075.0,-0.47,-1.21,10.35,-2.31,-1.12,-0.64,27.53,60.0-70.0
60.0,1855.0,-0.63,0.4,9.77,0.77,-0.6,-1.07,27.54,60.0-70.0
60.0,2117.0,0.32,0.69,9.98,0.41,-0.5,0.9,27.53,60.0-70.0
60.0,1649.0,-1.0,-0.12,9.47,0.38,2.01,0.09,27.54,60.0-70.0
60.0,1822.0,0.61,0.85,10.12,0.47,-2.75,1.17,27.55,60.0-70.0
60.0,953.0,-1.03,-1.03,10.23,-2.02,0.1,-0.26,27.55,60.0-70.0
60.0,1594.0,-0.86,-0.28,9.62,0.73,-0.76,-0.9,27.53,60.0-70.0
60.0,2643.0,0.41,0.31,9.91,-0.65,0.25,1.11,27.54,60.0-70.0
60.0,1801.0,-1.25,-0.22,9.28,0.82,1.81,-0.78,27.52,60.0-70.0
60.0,1611.0,0.93,0.9,9.9,0.53,-1.49,1.19,27.56,60.0-70.0
60.0,1200.0,-1.05,-1.07,10.17,-2.25,0.56,-0.95,27.54,60.0-70.0
60.0,1494.0,-0.67,0.78,9.53,1.58,-1.47,-0.52,27.56,60.0-70.0
60.0,1344.0,0.2,-0.92,9.67,-2.2,1.9,-0.32,27.55,60.0-70.0
60.0,1983.0,-2.06,-0.17,9.27,0.77,2.59,-0.67,27.54,60.0-70.0
60.0,1936.0,1.05,0.99,10.01,0.44,-1.75,1.85,27.53,60.0-70.0
60.0,1664.0,-1.28,-0.24,9.79,0.13,2.11,-0.24,27.54,60.0-70.0
60.0,2029.0,0.46,0.88,10.52,0.35,-4.75,1.83,27.55,60.0-70.0
60.0,668.0,0.3,-1.05,9.86,-2.51,1.52,-0.4,27.54,60.0-70.0
60.0,1488.0,-1.65,0.39,9.46,0.77,-0.83,-1.04,27.55,60.0-70.0
60.0,1136.0,0.53,-0.81,9.4,-2.03,2.1,-0.05,27.54,60.0-70.0
60.0,2079.0,-1.22,-0.13,9.59,0.71,0.48,-1.57,27.52,60.0-70.0
60.0,922.0,0.7,0.86,10.42,0.41,-3.7,1.6,27.53,60.0-70.0
60.0,1200.0,-0.95,-0.22,10.0,0.35,1.4,-0.53,27.57,60.0-70.0
60.0,1655.0,0.09,0.83,10.46,0.35,-4.77,1.77,27.55,60.0-70.0
60.0,2015.0,-0.59,-0.42,9.88,-0.17,1.69,-0.44,27.54,60.0-70.0
60.0,1636.0,-1.73,0.63,9.23,0.85,0.08,-0.53,27.54,60.0-70.0
60.0,288.0,0.61,-1.13,9.59,-2.45,2.31,-0.05,27.54,60.0-70.0
60.0,1033.0,-1.33,0.36,9.54,0.76,-0.11,-0.98,27.52,60.0-70.0
60.0,1535.0,0.37,-0.85,9.29,-1.91,2.74,0.02,27.54,60.0-70.0
60.0,1584.0,-1.45,-0.03,9.82,0.83,0.68,-0.75,27.52,60.0-70.0
60.0,2326.0,0.81,0.76,10.47,0.15,-3.11,1.56,27.53,60.0-70.0
60.0,1779.0,-1.04,-0.14,9.77,0.65,0.59,-0.67,27.53,60.0-70.0
60.0,2655.0,0.54,0.83,10.41,0.24,-3.75,1.79,27.52,60.0-70.0
60.0,1741.0,-0.73,-1.13,9.92,-2.77,1.24,-0.67,27.53,60.0-70.0
60.0,801.0,-0.8,1.03,9.02,1.52,-0.33,0.29,27.53,60.0-70.0
60.0,1280.0,-0.23,-1.22,9.99,-2.89,1.15,-0.46,27.52,60.0-70.0
60.0,1932.0,-1.21,0.94,9.06,1.4,-0.36,-0.08,27.52,60.0-70.0
60.0,1710.0,0.65,0.21,10.0,-0.75,-0.34,1.45,27.52,60.0-70.0
60.0,898.0,-1.44,0.02,9.24,1.58,1.82,-1.08,27.55,60.0-70.0
60.0,1952.0,0.81,0.42,10.23,-0.57,-1.03,1.37,27.52,60.0-70.0
60.0,1134.0,-1.71,-0.01,9.27,1.58,1.81,-1.1,27.51,60.0-70.0
60.0,2298.0,0.27,0.99,10.01,0.88,-4.23,1.31,27.53,60.0-70.0
60.0,1131.0,-0.91,-0.71,9.76,-0.87,2.13,-0.9,27.52,60.0-70.0
60.0,1827.0,0.4,1.01,9.89,1.02,-3.62,1.57,27.52,60.0-70.0
60.0,1273.0,-1.14,-0.7,9.78,-1.06,2.25,-0.63,27.53,60.0-70.0
60.0,1816.0,-1.37,0.54,9.56,1.03,-0.73,-0.49,27.52,60.0-70.0
60.0,902.0,0.56,-1.22,9.52,-2.31,2.77,-0.15,27.51,60.0-70.0
60.0,829.0,-1.2,0.5,9.69,1.12,-0.76,-0.93,27.54,60.0-70.0
60.0,973.0,0.37,-1.1,9.38,-2.05,3.0,-0.37,27.52,60.0-70.0
60.0,1803.0,-1.72,0.05,9.56,1.17,0.74,-0.84,27.55,60.0-70.0
60.0,1968.0,1.12,0.63,10.66,-0.23,-2.46,1.75,27.56,60.0-70.0
60.0,1859.0,-1.71,0.03,9.63,1.02,0.47,-0.69,27.53,60.0-70.0
60.0,1344.0,1.03,0.69,10.63,-0.17,-2.72,2.14,27.53,60.0-70.0
60.0,2384.0,-1.48,-0.86,9.7,-1.82,2.28,-0.85,27.55,60.0-70.0
60.0,1646.0,0.51,1.01,9.48,1.26,-1.96,1.11,27.54,60.0-70.0
60.0,929.0,-1.54,-0.82,9.7,-1.71,2.27,-0.79,27.54,60.0-70.0
60.0,1083.0,0.51,1.03,9.52,1.46,-2.14,0.89,27.57,60.0-70.0
60.0,1328.0,0.34,-1.09,9.33,-1.99,2.83,-0.05,27.56,60.0-70.0
60.0,1793.0,-1.0,0.36,9.76,1.11,-0.53,-1.11,27.57,60.0-70.0
60.0,1684.0,0.31,-1.05,9.26,-2.0,3.06,-0.24,27.54,60.0-70.0
60.0,1723.0,-0.96,0.37,9.73,1.2,-0.44,-1.07,27.53,60.0-70.0
60.0,2635.0,1.06,0.65,10.66,-0.13,-2.66,1.92,27.53,60.0-70.0
60.0,1557.0,-1.56,-0.04,9.76,0.91,0.33,-0.63,27.55,60.0-70.0
60.0,1535.0,1.02,0.62,10.62,-0.23,-2.56,2.12,27.54,60.0-70.0
60.0,2398.0,-1.69,-0.08,9.65,0.9,0.36,-0.55,27.55,60.0-70.0
60.0,2330.0,0.57,1.03,9.58,1.41,-2.27,1.16,27.56,60.0-70.0
60.0,879.0,-1.49,-0.82,9.76,-1.62,2.17,-0.95,27.53,60.0-70.0
60.0,1830.0,0.65,1.03,9.63,1.41,-2.39,0.93,27.54,60.0-70.0
60.0,953.0,-1.48,-0.78,9.8,-1.45,2.36,-1.22,27.56,60.0-70.0
60.0,1106.0,-1.05,0.44,9.82,1.12,-1.03,-1.02,27.55,60.0-70.0
60.0,1113.0,0.27,-1.16,9.37,-2.25,2.83,-0.27,27.55,60.0-70.0
60.0,1506.0,-1.07,0.53,9.7,1.02,-1.02,-0.78,27.53,60.0-70.0
60.0,2263.0,0.34,-1.17,9.41,-2.39,2.91,-0.09,27.52,60.0-70.0
60.0,1901.0,-1.94,-0.04,9.38,1.09,1.04,-0.76,27.53,60.0-70.0
60.0,2368.0,1.33,0.48,10.48,-0.39,-1.67,1.95,27.52,60.0-70.0
60.0,1264.0,-1.92,-0.06,9.37,1.12,1.23,-0.78,27.52,60.0-70.0
60.0,1450.0,1.25,0.44,10.42,-0.46,-1.72,1.77,27.54,60.0-70.0
60.0,1597.0,-1.25,-0.67,9.76,-1.06,2.36,-1.05,27.52,60.0-70.0
60.0,1680.0,0.63,1.02,9.99,1.06,-3.85,1.22,27.53,60.0-70.0
60.0,1222.0,-1.25,-0.71,9.8,-1.06,2.37,-1.19,27.54,60.0-70.0
60.0,1136.0,0.58,1.01,9.95,1.02,-3.93,1.37,27.53,60.0-70.0
60.0,932.0,0.51,-1.24,9.6,-2.42,2.8,-0.38,27.52,60.0-70.0
60.0,1008.0,-1.61,0.85,9.43,1.28,-1.0,-0.24,27.52,60.0-70.0
60.0,662.0,0.43,-1.27,9.68,-2.52,2.68,-0.27,27.54,60.0-70.0
60.0,913.0,-1.61,0.92,9.33,1.26,-0.85,-0.23,27.52,60.0-70.0
60.0,1152.0,1.25,0.16,10.34,-0.81,-1.55,1.79,27.54,60.0-70.0
60.0,1897.0,-1.63,-0.1,9.35,1.47,1.47,-0.99,27.52,60.0-70.0
60.0,1909.0,1.18,0.05,10.32,-1.01,-1.34,1.36,27.54,60.0-70.0
60.0,1503.0,-1.58,-0.08,9.3,1.51,1.85,-1.36,27.54,60.0-70.0
60.0,2096.0,0.16,1.1,10.21,0.65,-4.75,1.56,27.52,60.0-70.0
60.0,2338.0,-0.64,-0.59,9.87,-0.49,1.91,-1.05,27.54,60.0-70.0
60.0,1364.0,0.06,1.04,10.21,0.56,-4.75,1.91,27.53,60.0-70.0
60.0,552.0,-0.58,-0.57,9.92,-0.4,1.91,-0.79,27.52,60.0-70.0
60.0,1875.0,-1.52,1.17,8.93,1.83,-0.08,0.18,27.55,60.0-70.0
60.0,1690.0,0.01,-1.18,10.03,-2.6,1.91,-0.47,27.54,60.0-70.0
60.0,537.0,-1.39,1.2,8.93,1.93,-0.08,0.14,27.53,60.0-70.0
60.0,358.0,-0.06,-1.18,10.1,-2.63,1.52,-0.75,27.56,60.0-70.0
60.0,325.0,-0.9,-0.07,9.41,1.6,1.59,-1.28,27.54,60.0-70.0
60.0,1291.0,0.47,-0.33,9.8,-1.64,-0.27,0.9,27.54,60.0-70.0
60.0,1251.0,-0.75,-0.12,9.56,1.52,1.17,-1.34,27.52,60.0-70.0
60.0,1574.0,0.3,-0.44,9.78,-1.79,0.02,0.89,27.56,60.0-70.0
60.0,1637.0,-0.59,-0.4,10.03,0.04,1.29,-0.82,27.53,60.0-70.0
60.0,1891.0,-0.05,0.97,10.28,0.24,-3.75,2.15,27.53,60.0-70.0
60.0,1693.0,-0.75,-0.4,9.95,0.1,1.23,-0.76,27.55,60.0-70.0
60.0,1219.0,0.05,0.91,10.22,0.19,-3.38,2.17,27.53,60.0-70.0
60.0,1127.0,-0.74,-1.04,9.97,-2.39,1.33,-0.67,27.54,60.0-70.0
60.0,1445.0,-0.07,1.13,9.17,1.96,-0.53,0.49,27.56,60.0-70.0
60.0,654.0,-0.87,-1.06,9.9,-2.29,1.17,-0.96,27.55,60.0-70.0
60.0,70.0,0.17,1.07,9.27,2.04,-0.92,0.44,27.53,60.0-70.0
60.0,464.0,-0.09,-0.66,9.38,-2.03,1.43,0.44,27.52,60.0-70.0
60.0,966.0,-0.74,0.22,10.02,1.26,-0.11,-1.07,27.52,60.0-70.0
60.0,667.0,-0.11,-0.79,9.37,-2.14,1.75,0.41,27.52,60.0-70.0
60.0,1710.0,-0.73,0.26,10.06,1.26,-0.48,-0.85,27.54,60.0-70.0
60.0,1958.0,0.75,0.7,10.39,0.03,-2.31,2.09,27.55,60.0-70.0
60.0,2293.0,-1.36,-0.12,9.66,0.79,0.72,-0.72,27.54,60.0-70.0
60.0,1779.0,0.91,0.66,10.42,-0.02,-2.11,2.08,27.53,60.0-70.0
60.0,210.0,-1.48,-0.18,9.54,0.85,0.77,-0.95,27.54,60.0-70.0
60.0,1520.0,0.61,1.06,9.77,1.55,-2.66,0.96,27.53,60.0-70.0
60.0,1008.0,-1.54,-0.79,9.86,-1.61,1.82,-1.07,27.55,60.0-70.0
60.0,2170.0,0.75,1.02,9.89,1.41,-2.98,0.98,27.52,60.0-70.0
60.0,1307.0,-1.56,-0.74,9.91,-1.36,1.88,-0.95,27.54,60.0-70.0
60.0,1136.0,-1.32,0.67,9.65,1.12,-1.08,-0.64,27.52,60.0-70.0
60.0,1706.0,0.32,-1.09,9.37,-2.32,3.09,-0.15,27.52,60.0-70.0
60.0,567.0,-1.36,0.81,9.52,1.26,-1.0,-0.34,27.54,60.0-70.0
60.0,307.0,0.4,-1.13,9.52,-2.42,2.8,-0.18,27.52,60.0-70.0
60.0,1680.0,-1.82,-0.08,9.25,1.25,1.43,-1.04,27.54,60.0-70.0
60.0,1917.0,1.3,0.23,10.36,-0.68,-1.44,1.6,27.54,60.0-70.0
60.0,846.0,-1.78,-0.11,9.22,1.31,1.55,-1.25,27.54,60.0-70.0
60.0,1586.0,1.21,0.1,10.4,-0.95,-1.4,1.37,27.53,60.0-70.0
60.0,529.0,-1.03,-0.61,9.84,-0.65,2.43,-1.05,27.55,60.0-70.0
60.0,816.0,0.21,1.11,10.15,0.77,-4.51,1.77,27.52,60.0-70.0
60.0,464.0,-0.87,-0.54,9.87,-0.54,2.16,-0.79,27.54,60.0-70.0
60.0,1555.0,0.16,1.03,10.26,0.51,-4.78,1.92,27.54,60.0-70.0
60.0,409.0,0.29,-1.13,9.83,-2.43,2.37,-0.44,27.54,60.0-70.0
60.0,325.0,-1.46,1.22,9.0,1.87,-0.59,0.11,27.55,60.0-70.0
60.0,789.0,0.08,-1.17,10.01,-2.49,1.76,-0.61,27.54,60.0-70.0
60.0,283.0,-1.23,1.22,9.02,1.78,-0.68,0.08,27.54,60.0-70.0
60.0,851.0,0.73,-0.35,10.05,-1.62,-0.5,0.99,27.54,60.0-70.0
60.0,1022.0,-1.01,-0.1,9.4,1.52,1.5,-1.42,27.54,60.0-70.0
60.0,1345.0,0.5,-0.4,9.85,-1.71,-0.1,1.01,27.52,60.0-70.0
60.0,1853.0,-0.88,-0.1,9.53,1.4,1.33,-1.25,27.54,60.0-70.0
60.0,1859.0,-0.01,0.97,10.2,0.39,-3.93,2.2,27.54,60.0-70.0
60.0,1734.0,-0.77,-0.33,9.97,0.22,1.43,-0.75,27.54,60.0-70.0
60.0,1360.0,-0.02,0.94,10.21,0.22,-3.52,2.14,27.53,60.0-70.0
60.0,1343.0,-0.8,-0.3,9.98,0.35,1.38,-0.85,27.53,60.0-70.0
60.0,1870.0,-0.21,1.13,9.21,2.12,-0.77,0.6,27.52,60.0-70.0
60.0,646.0,-0.89,-0.97,9.99,-2.25,1.29,-0.9,27.54,60.0-70.0
60.0,1281.0,0.18,1.11,9.2,2.02,-0.76,0.61,27.53,60.0-70.0
60.0,1475.0,-1.03,-0.98,9.88,-2.13,1.32,-0.96,27.53,60.0-70.0
60.0,724.0,-0.74,0.19,10.01,1.15,-0.08,-1.19,27.55,60.0-70.0
60.0,1613.0,-0.02,-0.98,9.34,-2.34,1.99,0.15,27.53,60.0-70.0
60.0,729.0,-0.82,0.3,9.97,1.06,-0.39,-0.92,27.55,60.0-70.0
60.0,2285.0,-0.07,-1.04,9.24,-2.42,2.42,0.12,27.55,60.0-70.0
60.0,1072.0,-1.47,-0.1,9.55,0.99,0.95,-0.81,27.54,60.0-70.0
60.0,535.0,0.96,0.63,10.4,-0.04,-1.75,2.01,27.54,60.0-70.0
60.0,1687.0,-1.48,-0.01,9.41,1.19,1.0,-0.84,27.54,60.0-70.0
60.0,1997.0,1.27,0.54,10.49,-0.1,-1.67,1.82,27.52,60.0-70.0
60.0,1282.0,-1.48,-0.74,9.81,-1.41,1.72,-1.05,27.55,60.0-70.0
60.0,1840.0,0.7,1.06,9.97,1.17,-3.73,1.25,27.54,60.0-70.0
60.0,1623.0,-1.4,-0.74,9.77,-1.15,1.82,-1.04,27.53,60.0-70.0
60.0,1821.0,0.7,1.07,10.08,1.08,-4.28,1.63,27.54,60.0-70.0
60.0,1313.0,0.17,-1.21,9.51,-2.58,3.33,-0.44,27.55,60.0-70.0
60.0,848.0,-1.62,0.94,9.23,1.25,-0.76,-0.26,27.55,60.0-70.0
60.0,926.0,0.24,-1.28,9.65,-2.72,2.83,-0.52,27.56,60.0-70.0
60.0,175.0,-1.6,1.01,9.09,1.35,-0.63,-0.26,27.56,60.0-70.0
60.0,1098.0,1.09,-0.04,10.19,-1.03,-0.62,1.43,27.55,60.0-70.0
60.0,1310.0,-1.48,-0.15,9.22,1.64,2.04,-1.36,27.54,60.0-70.0
60.0,1877.0,0.95,-0.18,10.15,-1.23,-0.47,1.08,27.53,60.0-70.0
60.0,1871.0,-1.28,-0.15,9.26,1.64,2.2,-1.33,27.52,60.0-70.0
60.0,1658.0,0.13,1.13,10.42,0.51,-5.29,2.09,27.52,60.0-70.0
60.0,1568.0,-0.54,-0.37,10.14,0.01,1.11,-0.61,27.54,60.0-70.0
60.0,1904.0,0.02,1.13,10.38,0.47,-4.91,2.37,27.54,60.0-70.0
60.0,833.0,-0.54,-0.32,10.15,0.12,1.0,-0.53,27.53,60.0-70.0
60.0,0.0,-0.91,1.2,8.91,1.86,-0.1,0.4,27.53,60.0-70.0
60.0,1456.0,-0.56,-1.07,9.89,-2.64,1.78,-0.87,27.54,60.0-70.0
60.0,43.0,-0.5,1.17,9.0,1.93,-0.44,0.32,27.54,60.0-70.0
60.0,438.0,-0.76,-1.0,9.79,-2.32,1.72,-0.96,27.54,60.0-70.0
60.0,838.0,-0.74,-0.07,9.84,1.26,0.92,-1.43,27.54,60.0-70.0
60.0,1265.0,0.13,-0.85,9.29,-2.1,1.78,0.23,27.54,60.0-70.0
60.0,1581.0,-0.66,0.03,9.87,1.22,0.57,-1.33,27.54,60.0-70.0
60.0,1774.0,-0.02,-0.96,9.31,-2.34,1.93,0.31,27.52,60.0-70.0
60.0,1666.0,-1.16,-0.16,9.9,0.65,0.54,-0.6,27.54,60.0-70.0
60.0,1488.0,0.61,0.8,10.48,0.21,-2.57,2.18,27.53,60.0-70.0
60.0,2422.0,-1.45,-0.12,9.74,0.93,0.59,-0.63,27.54,60.0-70.0
60.0,1054.0,0.81,0.69,10.46,0.06,-2.1,1.95,27.56,60.0-70.0
60.0,1459.0,-1.39,-0.76,9.85,-1.64,1.38,-0.93,27.55,60.0-70.0
60.0,1861.0,0.85,1.12,9.82,1.63,-3.12,1.16,27.56,60.0-70.0
60.0,1115.0,-1.38,-0.75,9.83,-1.42,1.59,-0.93,27.55,60.0-70.0
60.0,1531.0,-1.24,0.55,9.66,0.94,-0.85,-0.92,27.55,60.0-70.0
60.0,463.0,-0.03,-1.25,9.37,-2.66,3.21,-0.5,27.55,60.0-70.0
60.0,947.0,-1.45,0.64,9.45,0.96,-0.85,-0.64,27.54,60.0-70.0
60.0,1199.0,0.08,-1.28,9.42,-2.84,3.23,-0.49,27.54,60.0-70.0
60.0,1175.0,-1.66,-0.06,9.35,1.55,1.49,-0.84,27.56,60.0-70.0
60.0,1983.0,1.34,0.22,10.38,-0.57,-1.09,1.72,27.52,60.0-70.0
60.0,1827.0,-1.57,-0.11,9.3,1.61,1.72,-1.13,27.53,60.0-70.0
60.0,2176.0,1.36,0.05,10.38,-0.74,-1.3,1.51,27.52,60.0-70.0
60.0,2224.0,-0.9,-0.52,9.98,-0.57,1.55,-0.95,27.52,60.0-70.0
60.0,2354.0,0.26,1.16,10.32,0.67,-5.24,1.91,27.51,60.0-70.0
60.0,1561.0,-0.69,-0.53,10.01,-0.46,1.43,-0.84,27.56,60.0-70.0
60.0,964.0,0.08,1.15,10.43,0.48,-5.36,2.06,27.55,60.0-70.0
60.0,1229.0,-0.02,-1.25,9.79,-2.74,2.77,-0.78,27.53,60.0-70.0
60.0,1451.0,-1.48,1.13,8.83,1.8,0.24,0.05,27.51,60.0-70.0
60.0,1654.0,-0.1,-1.19,9.82,-2.61,2.39,-0.78,27.52,60.0-70.0
60.0,290.0,-1.18,1.18,8.87,1.9,0.14,0.15,27.53,60.0-70.0
60.0,1707.0,0.56,-0.48,9.83,-1.68,0.05,0.95,27.51,60.0-70.0
60.0,1644.0,-0.76,-0.16,9.63,1.57,1.18,-1.34,27.51,60.0-70.0
60.0,1535.0,0.31,-0.64,9.73,-1.96,0.39,0.63,27.54,60.0-70.0
60.0,1968.0,-0.72,-0.04,9.74,1.35,0.92,-1.37,27.54,60.0-70.0
60.0,2075.0,0.13,1.02,10.34,0.44,-3.65,2.15,27.55,60.0-70.0
60.0,1908.0,-0.96,-0.19,10.06,0.39,0.82,-0.72,27.52,60.0-70.0
60.0,2014.0,0.28,0.97,10.38,0.27,-3.41,2.26,27.52,60.0-70.0
60.0,1840.0,-1.04,-0.17,10.0,0.59,0.42,-0.61,27.53,60.0-70.0
60.0,1654.0,0.34,1.09,9.27,1.81,-1.21,0.84,27.54,60.0-70.0
60.0,1166.0,-1.2,-0.95,9.71,-2.13,1.62,-0.84,27.52,60.0-70.0
60.0,1738.0,0.58,1.05,9.41,1.67,-1.73,0.92,27.49,60.0-70.0
60.0,863.0,-1.27,-0.93,9.84,-1.96,1.37,-0.98,27.54,60.0-70.0
60.0,805.0,-0.82,0.33,9.73,1.06,-0.22,-1.13,27.52,60.0-70.0
60.0,687.0,-0.11,-1.14,9.22,-2.43,2.97,-0.26,27.52,60.0-70.0
60.0,1410.0,-0.98,0.37,9.71,0.94,-0.6,-0.98,27.53,60.0-70.0
60.0,1341.0,-0.02,-1.23,9.29,-2.64,3.12,-0.26,27.54,60.0-70.0
60.0,2217.0,-1.74,0.05,9.45,1.44,0.79,-0.61,27.53,60.0-70.0
60.0,2927.0,1.2,0.58,10.59,-0.08,-1.88,2.15,27.54,60.0-70.0
60.0,1599.0,-1.85,0.07,9.44,1.51,0.82,-0.66,27.54,60.0-70.0
60.0,2133.0,1.32,0.41,10.55,-0.28,-1.66,1.82,27.52,60.0-70.0
60.0,2111.0,-1.24,-0.66,9.78,-1.0,1.96,-0.99,27.53,60.0-70.0
60.0,2019.0,0.75,1.1,10.17,0.93,-4.8,1.6,27.53,60.0-70.0
60.0,1419.0,-0.99,-0.59,9.86,-0.71,1.79,-0.89,27.53,60.0-70.0
60.0,1817.0,0.64,1.12,10.31,0.77,-5.41,1.8,27.54,60.0-70.0
60.0,1595.0,0.3,-1.29,9.53,-2.81,3.35,-0.84,27.53,60.0-70.0
60.0,1665.0,-1.9,0.96,9.07,1.19,-0.44,-0.34,27.54,60.0-70.0
60.0,1535.0,0.13,-1.26,9.64,-2.8,3.06,-0.78,27.52,60.0-70.0
60.0,1859.0,-1.78,1.0,8.97,1.29,-0.27,-0.21,27.52,60.0-70.0
60.0,1472.0,1.07,0.0,10.12,-0.91,-0.53,1.51,27.52,60.0-70.0
60.0,1755.0,-1.14,-0.13,9.34,1.84,1.88,-1.11,27.53,60.0-70.0
60.0,2237.0,1.04,-0.23,10.09,-1.2,-0.51,1.24,27.54,60.0-70.0
60.0,2482.0,-0.94,-0.18,9.45,1.84,1.9,-1.25,27.52,60.0-70.0
60.0,1950.0,-0.03,1.11,10.45,0.39,-5.42,2.01,27.53,60.0-70.0
60.0,1660.0,-0.51,-0.36,10.15,0.04,0.85,-0.78,27.52,60.0-70.0
60.0,1605.0,-0.11,1.14,10.48,0.32,-5.06,2.23,27.53,60.0-70.0
60.0,1616.0,-0.58,-0.24,10.25,0.19,0.51,-0.47,27.52,60.0-70.0
60.0,1246.0,-1.0,1.16,8.77,1.83,0.63,0.24,27.52,60.0-70.0
60.0,1075.0,-0.56,-1.14,9.73,-2.66,2.07,-0.89,27.52,60.0-70.0
60.0,1239.0,-0.56,1.12,8.88,1.84,0.36,0.29,27.53,60.0-70.0
60.0,1776.0,-0.8,-1.06,9.7,-2.43,1.99,-1.07,27.51,60.0-70.0
60.0,1739.0,-0.4,-0.13,9.9,1.22,0.65,-1.36,27.51,60.0-70.0
