Speed,Voice,Acceleration X,Acceleration Y,Acceleration Z,Gyro X,Gyro Y,Gyro Z,Temperature,Speed_Range
70.0,1578.0,0.91,0.18,9.87,-0.97,-0.36,0.43,27.99,70.0-80.0
70.0,2870.0,-1.82,-0.49,8.91,0.59,2.86,-1.98,27.98,70.0-80.0
70.0,1926.0,0.91,0.03,9.99,-1.36,-0.54,1.65,27.97,70.0-80.0
70.0,1517.0,-1.96,-0.2,8.85,0.77,2.37,-0.11,28.0,70.0-80.0
70.0,1378.0,0.58,1.05,9.96,0.91,-3.53,3.2,27.98,70.0-80.0
70.0,1591.0,-0.8,-0.97,9.81,-0.86,2.72,-0.2,28.0,70.0-80.0
70.0,1651.0,-0.21,0.96,9.76,0.27,-2.85,2.04,27.99,70.0-80.0
70.0,1413.0,-0.89,-0.62,9.7,0.32,1.96,-2.64,27.99,70.0-80.0
70.0,2644.0,1.09,1.36,9.86,2.04,-2.51,0.31,28.01,70.0-80.0
70.0,1923.0,-1.69,-1.02,9.96,-1.0,1.46,-2.98,27.98,70.0-80.0
70.0,1953.0,0.11,1.03,9.79,0.53,-2.95,1.05,28.0,70.0-80.0
70.0,1954.0,-1.03,-0.45,9.8,0.39,1.12,-1.91,27.98,70.0-80.0
70.0,2393.0,0.97,1.26,10.08,1.12,-3.58,2.76,28.01,70.0-80.0
70.0,2455.0,-1.44,-0.98,10.15,-0.84,0.83,-0.5,27.98,70.0-80.0
70.0,2479.0,0.66,0.06,9.54,-0.89,-0.18,3.1,27.98,70.0-80.0
70.0,2256.0,-1.56,1.3,9.83,2.54,-0.18,-0.15,28.0,70.0-80.0
70.0,1810.0,0.07,0.7,9.32,-0.17,-0.73,2.11,28.0,70.0-80.0
70.0,1264.0,-1.71,0.82,9.75,1.95,-0.18,-2.2,27.98,70.0-80.0
70.0,1707.0,0.81,-2.24,10.0,-4.45,-0.37,-1.39,27.99,70.0-80.0
70.0,2479.0,-0.29,2.07,9.51,3.4,-1.47,-0.4,27.99,70.0-80.0
70.0,1602.0,1.22,-2.44,10.03,-4.61,-0.68,-0.96,27.99,70.0-80.0
70.0,2437.0,-0.31,2.15,9.7,3.5,-1.47,0.81,27.98,70.0-80.0
70.0,2256.0,-1.52,-1.44,8.98,-0.71,5.39,-0.38,27.98,70.0-80.0
70.0,1701.0,-0.24,1.57,9.92,-0.14,-2.13,3.39,27.98,70.0-80.0
70.0,2097.0,-1.51,-1.4,8.87,-0.48,5.58,0.14,27.98,70.0-80.0
70.0,2094.0,-0.36,1.76,9.88,-0.25,-1.63,2.82,28.01,70.0-80.0
70.0,1357.0,-1.55,0.49,9.71,1.69,-1.12,-1.34,27.97,70.0-80.0
70.0,1863.0,1.35,-3.31,10.33,-6.43,-1.4,-1.69,27.97,70.0-80.0
70.0,1575.0,-1.74,0.91,9.8,2.31,-1.69,-2.11,27.98,70.0-80.0
70.0,1854.0,1.01,-3.53,10.46,-7.15,-1.76,-2.24,28.0,70.0-80.0
70.0,2643.0,1.18,2.07,10.21,3.26,-3.94,1.17,27.99,70.0-80.0
70.0,1522.0,-1.39,-1.73,8.61,0.97,6.08,-1.37,27.99,70.0-80.0
70.0,1498.0,1.71,1.83,10.65,1.89,-5.87,2.67,27.97,70.0-80.0
70.0,1738.0,-0.86,-1.88,8.9,1.05,4.57,-0.67,27.98,70.0-80.0
70.0,1774.0,0.3,0.16,9.25,-1.12,3.62,1.77,27.98,70.0-80.0
70.0,122.0,-2.76,4.13,9.14,7.49,0.91,1.79,27.99,70.0-80.0
70.0,2058.0,1.24,-1.15,9.42,-2.42,3.59,-0.09,28.01,70.0-80.0
70.0,2384.0,-2.16,4.3,8.86,8.72,1.58,1.14,27.97,70.0-80.0
70.0,1296.0,-2.56,-1.67,8.7,-2.57,6.46,-2.98,27.96,70.0-80.0
70.0,1903.0,-0.35,2.05,10.73,-2.0,-5.75,1.36,27.98,70.0-80.0
70.0,1930.0,-2.87,-1.39,8.22,-0.11,8.95,-2.29,27.97,70.0-80.0
70.0,677.0,-1.32,1.89,9.86,-1.55,-1.49,2.12,27.97,70.0-80.0
70.0,673.0,-2.12,1.92,10.03,3.28,-3.62,1.3,27.97,70.0-80.0
70.0,2928.0,0.28,-4.18,10.77,-9.62,-1.99,-1.56,27.98,70.0-80.0
70.0,1847.0,-2.74,3.89,9.45,6.1,-1.4,2.49,28.0,70.0-80.0
70.0,920.0,-1.2,-3.2,9.95,-7.67,0.85,-2.23,27.99,70.0-80.0
70.0,1936.0,1.67,1.72,11.39,-1.61,-9.18,2.04,27.99,70.0-80.0
70.0,1986.0,-2.57,-2.11,8.88,-3.88,5.21,-3.08,27.99,70.0-80.0
70.0,275.0,0.0,1.83,10.95,-2.48,-6.49,1.22,27.99,70.0-80.0
70.0,174.0,-1.05,0.48,10.31,2.36,-4.62,-0.64,27.99,70.0-80.0
70.0,1222.0,0.97,-4.61,10.87,-9.13,-0.5,-3.1,27.98,70.0-80.0
70.0,1662.0,-2.24,2.87,9.82,4.6,-3.49,1.69,27.97,70.0-80.0
70.0,1284.0,-0.5,-3.98,10.37,-8.9,0.16,-2.3,27.98,70.0-80.0
70.0,1535.0,2.15,1.74,11.33,-0.65,-9.27,3.51,27.99,70.0-80.0
70.0,660.0,0.06,-1.2,9.86,2.27,-0.79,-0.47,27.98,70.0-80.0
70.0,481.0,0.56,1.78,11.09,-2.61,-7.61,2.43,27.98,70.0-80.0
70.0,1088.0,-0.86,0.35,10.28,2.89,-4.04,-0.21,27.99,70.0-80.0
70.0,1042.0,0.8,-4.63,10.82,-8.67,0.33,-3.78,27.97,70.0-80.0
70.0,1717.0,2.06,2.58,10.71,3.63,-6.34,2.37,27.99,70.0-80.0
70.0,1447.0,-0.42,-4.05,10.43,-8.53,0.98,-3.89,27.99,70.0-80.0
70.0,1096.0,1.89,1.86,11.24,-0.48,-9.12,2.7,27.97,70.0-80.0
70.0,26.0,-0.01,-1.0,9.8,2.42,-0.66,-0.55,27.99,70.0-80.0
70.0,901.0,1.42,-4.11,10.23,-7.16,2.45,-1.88,27.96,70.0-80.0
70.0,2046.0,-1.06,0.7,10.19,2.92,-4.4,1.1,27.98,70.0-80.0
70.0,1130.0,0.56,-4.59,10.8,-9.11,0.85,-2.9,27.99,70.0-80.0
70.0,2556.0,2.2,2.5,10.8,2.96,-7.12,3.31,27.99,70.0-80.0
70.0,1733.0,-0.28,-1.55,9.03,2.85,3.38,-2.08,27.99,70.0-80.0
70.0,398.0,1.65,1.89,11.26,-1.03,-9.3,2.17,27.98,70.0-80.0
70.0,941.0,-0.25,-0.6,10.11,2.85,-2.02,-1.22,27.99,70.0-80.0
70.0,1175.0,0.92,-4.44,10.3,-7.86,2.04,-3.42,27.99,70.0-80.0
70.0,1827.0,1.44,3.36,10.21,6.16,-3.76,3.77,28.0,70.0-80.0
70.0,1002.0,0.05,-4.54,10.79,-9.5,1.04,-3.31,28.0,70.0-80.0
70.0,1983.0,2.12,2.3,11.04,1.44,-8.57,3.98,27.97,70.0-80.0
70.0,0.0,0.03,-1.29,9.43,2.83,1.44,-0.64,27.99,70.0-80.0
70.0,497.0,1.12,-3.49,9.91,-6.64,3.21,-2.23,27.97,70.0-80.0
70.0,970.0,-0.8,0.34,10.25,3.34,-3.44,0.18,27.98,70.0-80.0
70.0,752.0,0.68,-4.71,10.63,-9.07,1.4,-3.95,27.99,70.0-80.0
70.0,2124.0,1.86,2.92,10.66,4.25,-6.08,3.02,28.0,70.0-80.0
70.0,1453.0,-0.48,-1.78,8.9,2.65,4.22,-2.29,28.0,70.0-80.0
70.0,271.0,1.73,2.07,11.11,-0.31,-8.95,2.78,27.98,70.0-80.0
70.0,611.0,-0.25,-0.76,10.05,2.92,-1.27,-0.56,27.98,70.0-80.0
70.0,1505.0,0.97,-4.46,10.27,-8.15,2.2,-2.75,27.99,70.0-80.0
70.0,1929.0,1.21,3.7,10.2,6.86,-3.53,4.46,27.99,70.0-80.0
70.0,1077.0,0.01,-4.62,10.68,-9.51,1.11,-3.3,27.97,70.0-80.0
70.0,1955.0,2.22,2.43,11.02,1.73,-8.34,3.62,27.98,70.0-80.0
70.0,1856.0,-0.05,-1.21,9.47,3.14,1.62,-1.33,27.97,70.0-80.0
70.0,1374.0,1.07,-3.61,10.0,-7.01,3.04,-3.08,27.99,70.0-80.0
70.0,1054.0,-0.76,0.38,10.27,3.46,-3.79,-0.2,27.99,70.0-80.0
70.0,865.0,0.56,-4.78,10.58,-9.25,1.55,-4.04,27.98,70.0-80.0
70.0,2698.0,2.04,2.91,10.74,3.89,-6.57,3.45,27.97,70.0-80.0
70.0,1485.0,-0.47,-1.73,8.89,2.79,4.17,-1.54,27.97,70.0-80.0
70.0,880.0,1.5,2.09,11.14,-0.49,-8.92,3.4,27.99,70.0-80.0
70.0,656.0,-0.26,-0.5,10.15,3.11,-1.99,0.09,27.99,70.0-80.0
70.0,1501.0,0.86,-4.6,10.4,-8.53,1.99,-2.99,27.97,70.0-80.0
70.0,2709.0,1.43,3.49,10.32,6.19,-4.22,3.92,27.99,70.0-80.0
70.0,1728.0,0.01,-4.54,10.61,-9.57,1.44,-4.07,27.99,70.0-80.0
70.0,1517.0,2.01,2.36,11.01,1.31,-8.64,3.01,27.98,70.0-80.0
70.0,564.0,-0.07,-1.05,9.79,3.14,0.39,-1.33,27.99,70.0-80.0
70.0,1466.0,0.89,-4.02,10.07,-7.51,2.8,-3.3,27.99,70.0-80.0
70.0,1950.0,-0.99,0.81,10.29,3.7,-4.27,0.47,28.0,70.0-80.0
70.0,1535.0,0.3,-4.79,10.65,-9.63,1.55,-3.71,27.98,70.0-80.0
70.0,2928.0,2.13,2.72,10.72,3.05,-7.45,4.06,27.97,70.0-80.0
70.0,1350.0,-0.17,-1.51,9.24,2.77,2.8,-1.05,27.98,70.0-80.0
70.0,1072.0,1.19,2.03,11.06,-1.24,-8.57,3.2,28.01,70.0-80.0
70.0,1423.0,-0.62,-0.06,10.21,3.49,-2.79,0.06,27.99,70.0-80.0
70.0,1695.0,0.63,-4.73,10.57,-9.05,1.73,-3.86,27.97,70.0-80.0
70.0,2928.0,1.75,3.25,10.55,5.32,-5.59,3.57,27.98,70.0-80.0
70.0,2466.0,-0.2,-4.4,10.31,-9.3,1.88,-4.38,27.99,70.0-80.0
70.0,2055.0,1.85,2.26,11.07,0.27,-8.98,3.1,27.99,70.0-80.0
70.0,1246.0,-0.17,-0.75,9.91,3.2,-0.89,-0.58,27.99,70.0-80.0
70.0,2171.0,0.9,-4.47,10.37,-8.52,2.14,-3.23,27.98,70.0-80.0
70.0,1873.0,-1.43,1.5,10.24,4.47,-4.63,1.62,27.97,70.0-80.0
70.0,2164.0,0.14,-4.69,10.67,-9.83,1.4,-3.65,27.98,70.0-80.0
70.0,2227.0,2.08,2.54,11.04,1.87,-8.4,3.72,27.99,70.0-80.0
70.0,1488.0,-0.06,-1.3,9.51,3.03,1.38,-1.14,27.98,70.0-80.0
70.0,1211.0,0.7,2.06,10.94,-1.78,-7.85,2.55,27.99,70.0-80.0
70.0,1318.0,-0.85,0.53,10.33,3.81,-3.98,0.24,27.97,70.0-80.0
70.0,1435.0,0.44,-4.82,10.66,-9.53,1.29,-4.1,27.98,70.0-80.0
70.0,2032.0,2.02,2.92,10.88,3.87,-7.13,3.63,28.02,70.0-80.0
70.0,1722.0,-0.56,-4.11,10.04,-8.78,2.48,-3.92,27.99,70.0-80.0
70.0,1474.0,1.34,2.13,10.98,-0.78,-9.03,3.27,27.99,70.0-80.0
70.0,1090.0,-0.3,-0.26,10.25,3.29,-2.51,0.08,27.98,70.0-80.0
70.0,1351.0,0.57,-4.6,10.42,-8.96,2.01,-3.33,27.98,70.0-80.0
70.0,2586.0,-1.83,2.31,10.03,5.06,-4.75,1.83,27.97,70.0-80.0
70.0,1616.0,-0.11,-4.4,10.36,-9.54,2.04,-4.1,27.98,70.0-80.0
70.0,1739.0,1.79,2.32,11.02,0.59,-9.16,3.19,27.99,70.0-80.0
70.0,909.0,-0.04,-0.9,9.94,3.17,-0.4,-1.13,27.98,70.0-80.0
70.0,1271.0,0.09,1.91,10.89,-2.32,-6.63,2.12,27.97,70.0-80.0
70.0,1794.0,-1.23,1.34,10.24,4.37,-4.68,0.99,27.98,70.0-80.0
70.0,1136.0,0.22,-4.7,10.7,-9.79,1.44,-3.85,27.97,70.0-80.0
70.0,2366.0,2.16,2.57,10.95,2.31,-8.46,3.88,27.97,70.0-80.0
70.0,1020.0,-0.95,-3.84,9.67,-8.03,3.18,-3.62,27.97,70.0-80.0
70.0,1298.0,0.76,2.1,11.01,-1.59,-8.11,2.99,27.99,70.0-80.0
70.0,319.0,-0.63,0.36,10.36,3.73,-3.72,0.32,28.02,70.0-80.0
70.0,1236.0,0.41,-4.76,10.53,-9.44,1.91,-4.0,28.0,70.0-80.0
70.0,2342.0,-2.21,3.21,9.78,6.14,-4.22,2.06,27.99,70.0-80.0
70.0,1704.0,-0.36,-4.19,10.16,-9.08,2.33,-4.2,28.01,70.0-80.0
70.0,1598.0,1.5,2.23,10.98,-0.42,-9.07,2.99,28.0,70.0-80.0
70.0,944.0,-0.22,-0.52,10.24,3.15,-2.31,-0.37,27.99,70.0-80.0
70.0,1950.0,-0.16,1.68,10.69,-2.93,-5.41,2.17,27.99,70.0-80.0
70.0,1080.0,-1.69,2.06,10.16,4.97,-4.85,1.82,27.98,70.0-80.0
70.0,1036.0,-0.09,-4.52,10.54,-9.74,1.72,-3.81,27.99,70.0-80.0
70.0,2926.0,2.0,2.43,10.99,1.17,-8.89,3.6,27.99,70.0-80.0
70.0,1584.0,-1.49,-3.5,9.33,-6.9,4.58,-3.75,27.97,70.0-80.0
70.0,1045.0,0.41,1.94,10.91,-2.26,-7.24,2.27,28.0,70.0-80.0
70.0,55.0,-1.09,1.01,10.43,4.15,-4.49,0.61,27.97,70.0-80.0
70.0,1575.0,0.1,-4.73,10.7,-9.72,1.47,-4.1,27.99,70.0-80.0
70.0,2181.0,-2.35,3.9,9.49,6.92,-3.29,2.72,27.98,70.0-80.0
70.0,1264.0,-0.82,-3.91,9.77,-8.46,3.09,-3.77,27.97,70.0-80.0
70.0,1246.0,1.0,2.1,11.07,-1.42,-8.66,3.08,27.98,70.0-80.0
70.0,576.0,-0.65,0.01,10.25,3.41,-3.38,0.27,27.99,70.0-80.0
70.0,1122.0,-0.38,1.51,10.43,-3.03,-3.81,1.83,27.98,70.0-80.0
70.0,880.0,-1.87,2.77,10.05,5.67,-4.39,2.03,27.96,70.0-80.0
70.0,78.0,-0.47,-4.3,10.24,-9.3,1.9,-4.15,27.99,70.0-80.0
70.0,1739.0,1.85,2.21,11.1,0.03,-8.96,3.11,27.96,70.0-80.0
70.0,335.0,-2.11,-3.1,8.94,-5.61,5.53,-3.69,27.97,70.0-80.0
70.0,880.0,-0.02,1.9,10.82,-2.63,-6.13,2.18,27.98,70.0-80.0
70.0,562.0,-1.44,1.65,10.22,4.65,-4.43,1.33,27.98,70.0-80.0
70.0,540.0,-0.19,-4.57,10.75,-9.92,1.14,-3.94,27.98,70.0-80.0
70.0,1893.0,-2.18,4.34,9.25,7.72,-2.27,3.23,27.96,70.0-80.0
70.0,653.0,-1.39,-3.65,9.3,-7.54,3.9,-3.65,27.98,70.0-80.0
70.0,1267.0,0.57,2.05,10.98,-2.05,-7.5,2.81,27.98,70.0-80.0
70.0,1199.0,-1.1,0.68,10.12,3.9,-3.98,0.73,27.98,70.0-80.0
70.0,543.0,-0.38,1.24,10.11,-3.18,-2.07,1.24,28.0,70.0-80.0
70.0,592.0,-2.09,3.53,9.69,6.68,-3.62,2.47,27.97,70.0-80.0
70.0,496.0,-0.95,-4.06,9.9,-8.72,2.63,-4.17,27.98,70.0-80.0
70.0,1827.0,1.31,2.23,11.06,-0.81,-8.31,3.02,27.97,70.0-80.0
70.0,1520.0,-2.64,-2.72,8.68,-4.22,6.98,-3.43,27.96,70.0-80.0
70.0,798.0,-0.39,1.66,10.48,-2.83,-4.11,1.95,27.98,70.0-80.0
70.0,815.0,-1.77,2.57,10.06,5.56,-4.19,2.03,27.96,70.0-80.0
70.0,1329.0,-0.71,-4.31,10.33,-9.6,1.78,-4.01,27.96,70.0-80.0
70.0,1849.0,-2.09,4.83,9.02,8.77,-1.63,3.6,27.97,70.0-80.0
70.0,1635.0,-1.96,-3.13,8.93,-5.97,5.42,-3.59,27.98,70.0-80.0
70.0,1500.0,-0.02,1.98,10.78,-2.49,-5.87,2.21,27.97,70.0-80.0
70.0,441.0,-1.39,1.63,10.18,4.69,-4.34,1.17,27.98,70.0-80.0
70.0,847.0,-0.28,0.72,9.8,-3.42,-0.04,0.49,27.96,70.0-80.0
70.0,2390.0,-2.16,4.29,9.25,7.81,-2.53,2.98,27.98,70.0-80.0
70.0,882.0,-1.45,-3.63,9.46,-7.56,3.68,-3.85,27.96,70.0-80.0
70.0,2922.0,0.55,2.1,11.0,-1.85,-7.48,2.87,27.98,70.0-80.0
70.0,327.0,-2.81,-2.34,8.47,-2.55,8.03,-2.96,27.98,70.0-80.0
70.0,454.0,-0.48,1.27,10.04,-3.03,-1.85,1.51,27.97,70.0-80.0
70.0,982.0,-1.99,3.54,9.65,6.79,-3.46,2.64,27.99,70.0-80.0
70.0,2928.0,-1.05,-4.0,9.95,-8.73,2.69,-4.12,27.98,70.0-80.0
70.0,2927.0,-1.72,4.97,8.7,9.52,-0.65,3.75,27.98,70.0-80.0
70.0,1152.0,-2.49,-2.71,8.79,-4.35,6.77,-3.51,27.97,70.0-80.0
70.0,1795.0,-0.5,1.62,10.4,-2.87,-3.67,1.69,27.96,70.0-80.0
70.0,498.0,-1.79,2.72,10.01,5.76,-4.34,1.98,27.99,70.0-80.0
70.0,1264.0,0.23,-0.01,9.58,-3.84,1.73,-0.02,27.99,70.0-80.0
70.0,2334.0,-2.13,4.83,8.94,8.91,-1.5,3.74,27.97,70.0-80.0
70.0,1716.0,-2.01,-3.19,9.05,-5.79,5.61,-3.52,27.96,70.0-80.0
70.0,2556.0,-0.28,1.92,10.69,-2.54,-5.46,2.44,27.99,70.0-80.0
70.0,1072.0,-2.76,-2.11,8.49,-0.89,8.34,-2.76,27.98,70.0-80.0
70.0,1430.0,-0.02,0.6,9.68,-3.32,0.59,0.49,27.96,70.0-80.0
70.0,1859.0,-2.17,4.47,9.28,8.16,-2.56,3.16,27.98,70.0-80.0
70.0,1233.0,-1.48,-3.55,9.28,-7.1,4.48,-4.06,27.97,70.0-80.0
70.0,2928.0,-1.21,4.92,8.69,10.02,-0.3,4.01,27.96,70.0-80.0
70.0,1644.0,-2.86,-2.29,8.65,-2.13,8.12,-3.1,27.97,70.0-80.0
70.0,624.0,-0.43,1.07,9.9,-3.41,-0.92,1.13,27.98,70.0-80.0
70.0,976.0,-2.06,4.02,9.45,7.43,-3.3,3.07,27.96,70.0-80.0
70.0,2005.0,0.95,-1.13,9.42,-4.72,3.43,-1.01,27.96,70.0-80.0
70.0,2928.0,-1.58,5.06,8.63,10.16,-0.28,4.15,27.98,70.0-80.0
70.0,1674.0,-2.71,-2.64,8.78,-3.47,7.27,-3.31,27.97,70.0-80.0
70.0,2262.0,-0.54,1.47,10.19,-3.01,-2.46,1.46,27.99,70.0-80.0
70.0,1147.0,-2.29,-1.95,8.38,1.05,7.82,-2.55,27.97,70.0-80.0
70.0,2320.0,0.69,-0.59,9.43,-4.17,2.81,-0.66,27.98,70.0-80.0
70.0,2254.0,-1.82,4.95,8.77,9.62,-1.03,3.75,27.98,70.0-80.0
70.0,1488.0,-2.28,-2.88,8.79,-4.57,6.64,-3.59,27.98,70.0-80.0
70.0,2298.0,0.0,4.49,9.27,9.26,-1.35,4.24,27.98,70.0-80.0
70.0,2262.0,-2.6,-2.0,8.55,0.1,8.22,-2.58,27.97,70.0-80.0
70.0,1793.0,0.12,0.06,9.28,-3.73,2.66,0.17,27.97,70.0-80.0
70.0,1008.0,-1.97,4.74,9.06,8.92,-1.95,3.81,27.97,70.0-80.0
70.0,1797.0,1.45,-2.75,9.75,-6.08,3.49,-2.17,27.98,70.0-80.0
70.0,2928.0,-0.73,4.72,9.0,9.68,-0.97,4.23,27.96,70.0-80.0
70.0,1074.0,-2.61,-2.12,8.71,-0.68,8.52,-2.96,27.97,70.0-80.0
70.0,1691.0,-0.29,0.52,9.45,-3.47,1.38,0.41,27.97,70.0-80.0
70.0,826.0,-1.21,-1.82,8.52,2.25,5.53,-1.94,27.98,70.0-80.0
70.0,1890.0,1.36,-2.12,9.65,-5.61,3.68,-1.86,27.98,70.0-80.0
70.0,2107.0,-1.04,4.85,8.76,9.99,-0.69,4.23,27.97,70.0-80.0
70.0,1300.0,-2.6,-2.32,8.66,-1.73,8.16,-3.02,27.98,70.0-80.0
70.0,2927.0,1.31,3.88,10.12,7.21,-3.56,4.26,27.99,70.0-80.0
70.0,1092.0,-1.47,-1.82,8.45,2.04,6.58,-1.95,27.95,70.0-80.0
70.0,1713.0,1.02,-1.65,9.56,-5.19,3.39,-1.34,27.96,70.0-80.0
70.0,1702.0,-0.38,-0.89,9.15,3.46,1.46,-0.76,27.97,70.0-80.0
70.0,571.0,1.25,-4.21,10.41,-8.32,1.47,-3.3,27.98,70.0-80.0
70.0,2227.0,0.81,4.07,9.8,8.01,-2.46,4.07,27.95,70.0-80.0
70.0,870.0,-1.88,-1.88,8.44,1.41,7.01,-2.46,27.95,70.0-80.0
70.0,870.0,2.43,2.87,10.94,3.12,-7.3,3.65,27.95,70.0-80.0
70.0,688.0,-0.58,-1.26,8.9,3.2,2.45,-1.05,27.97,70.0-80.0
70.0,1179.0,1.5,-3.85,10.23,-7.59,2.48,-2.99,27.97,70.0-80.0
70.0,1872.0,0.17,4.32,9.56,9.03,-1.7,4.33,27.99,70.0-80.0
70.0,1204.0,0.14,-5.09,10.99,-10.58,-0.34,-4.21,27.97,70.0-80.0
70.0,1781.0,2.36,3.15,10.86,4.36,-6.54,3.97,27.98,70.0-80.0
70.0,653.0,-0.65,-1.41,8.76,3.17,3.58,-1.28,27.97,70.0-80.0
70.0,1483.0,1.55,-3.35,10.03,-6.89,3.2,-2.75,27.97,70.0-80.0
70.0,1068.0,-0.8,0.05,9.83,3.92,-1.43,0.15,27.99,70.0-80.0
70.0,898.0,0.63,-5.05,11.03,-10.17,-0.24,-4.24,27.97,70.0-80.0
70.0,1750.0,1.93,3.4,10.59,5.46,-5.3,4.0,27.97,70.0-80.0
70.0,2010.0,-0.91,-1.64,8.63,2.65,4.36,-1.59,27.96,70.0-80.0
70.0,784.0,1.94,2.53,11.14,0.38,-8.11,3.57,27.98,70.0-80.0
70.0,558.0,-0.79,-0.13,9.54,3.84,-0.56,0.09,27.98,70.0-80.0
70.0,1107.0,1.02,-4.97,10.9,-9.88,-0.3,-3.88,27.96,70.0-80.0
70.0,2256.0,1.6,3.56,10.52,6.05,-4.68,3.98,27.97,70.0-80.0
70.0,432.0,-0.91,-4.74,10.62,-10.56,0.18,-4.56,27.95,70.0-80.0
70.0,350.0,2.29,2.61,11.16,0.96,-8.19,3.48,27.99,70.0-80.0
70.0,0.0,-0.81,-0.43,9.4,3.67,0.21,-0.24,27.97,70.0-80.0
70.0,558.0,1.31,-4.79,10.73,-9.33,0.53,-3.71,27.98,70.0-80.0
70.0,1786.0,-1.31,1.83,10.02,5.38,-3.08,1.69,27.98,70.0-80.0
70.0,1023.0,-0.54,-4.92,10.74,-10.7,-0.19,-4.55,27.97,70.0-80.0
70.0,1392.0,2.55,2.61,11.09,1.83,-7.9,3.66,27.98,70.0-80.0
70.0,547.0,-0.78,-0.75,9.28,3.38,0.57,-0.41,27.98,70.0-80.0
70.0,763.0,0.12,2.37,10.81,-1.76,-6.26,2.82,27.98,70.0-80.0
70.0,976.0,-1.33,1.43,10.0,5.11,-2.77,1.34,27.98,70.0-80.0
70.0,336.0,-0.35,-5.04,10.88,-10.92,-0.6,-4.55,27.98,70.0-80.0
70.0,2079.0,2.52,2.79,11.09,2.65,-7.29,3.66,27.99,70.0-80.0
70.0,310.0,-1.86,-4.1,9.53,-8.31,3.18,-4.56,27.99,70.0-80.0
70.0,562.0,0.64,2.42,10.93,-1.45,-6.89,2.94,27.98,70.0-80.0
70.0,105.0,-1.29,1.23,9.87,5.0,-2.42,1.27,27.97,70.0-80.0
70.0,1473.0,0.13,-5.13,11.1,-11.02,-1.12,-4.47,27.97,70.0-80.0
70.0,2415.0,-1.37,3.72,9.57,7.53,-2.68,3.19,27.98,70.0-80.0
70.0,170.0,-1.81,-4.22,9.69,-8.93,2.33,-4.64,27.96,70.0-80.0
70.0,1671.0,1.07,2.45,11.06,-1.06,-7.04,3.1,27.98,70.0-80.0
70.0,261.0,-1.44,0.97,9.91,4.76,-2.36,1.07,27.96,70.0-80.0
70.0,546.0,-1.06,1.65,9.74,-2.61,-0.98,1.65,27.97,70.0-80.0
70.0,2094.0,-1.39,3.55,9.78,7.33,-2.85,2.87,27.99,70.0-80.0
70.0,834.0,-1.78,-4.31,9.8,-9.28,1.96,-4.68,27.98,70.0-80.0
70.0,1654.0,1.31,2.5,11.04,-0.74,-7.45,3.17,27.97,70.0-80.0
70.0,341.0,-2.4,-2.85,8.83,-3.84,7.48,-3.86,27.99,70.0-80.0
70.0,362.0,-1.08,1.88,9.95,-2.63,-1.88,1.94,27.97,70.0-80.0
70.0,1136.0,-1.41,3.21,9.86,6.88,-3.17,2.81,27.96,70.0-80.0
70.0,2086.0,-1.51,-4.44,10.06,-9.86,1.06,-4.61,27.98,70.0-80.0
70.0,2193.0,-1.3,4.78,9.04,9.38,-2.07,4.04,27.98,70.0-80.0
70.0,1136.0,-2.47,-3.09,8.86,-4.57,6.86,-3.98,27.96,70.0-80.0
70.0,752.0,-0.95,1.96,10.21,-2.52,-2.82,2.0,27.99,70.0-80.0
70.0,1045.0,-1.71,-0.88,9.74,-1.29,3.3,-1.25,27.55,70.0-80.0
70.0,1671.0,0.17,0.96,9.6,1.29,-1.02,0.85,27.56,70.0-80.0
70.0,1683.0,-1.62,-1.1,9.72,-1.41,3.43,-1.39,27.54,70.0-80.0
70.0,1942.0,-0.59,1.23,10.24,2.47,-3.2,0.93,27.56,70.0-80.0
70.0,1069.0,0.45,-0.67,10.03,-1.33,0.25,1.74,27.56,70.0-80.0
70.0,1834.0,-0.4,1.4,10.05,2.47,-3.55,2.06,27.58,70.0-80.0
70.0,1741.0,0.59,-1.09,10.6,-1.93,0.14,0.99,27.55,70.0-80.0
70.0,1246.0,-2.08,0.57,9.18,1.58,0.77,-0.72,27.55,70.0-80.0
70.0,1138.0,0.09,-0.22,9.62,-2.45,-0.3,0.37,27.55,70.0-80.0
70.0,721.0,-0.87,1.64,9.9,3.37,-0.73,-0.95,27.56,70.0-80.0
70.0,848.0,0.13,-1.06,9.8,-1.99,0.4,-0.98,27.56,70.0-80.0
70.0,963.0,-2.26,0.58,8.63,1.47,1.79,-2.37,27.57,70.0-80.0
70.0,205.0,0.17,-0.64,9.44,-2.9,1.23,0.63,27.57,70.0-80.0
70.0,1031.0,-0.74,1.95,9.49,3.95,-0.07,1.3,27.58,70.0-80.0
70.0,1217.0,-0.2,-1.4,10.24,-2.51,0.51,0.89,27.57,70.0-80.0
70.0,1482.0,-2.36,1.83,8.66,3.21,2.22,0.73,27.55,70.0-80.0
70.0,934.0,-0.02,-1.31,9.42,-3.1,2.02,0.73,27.55,70.0-80.0
70.0,1418.0,0.7,1.79,9.98,2.96,-4.43,1.53,27.54,70.0-80.0
70.0,590.0,-1.72,-1.54,10.1,-1.42,0.79,-2.32,27.52,70.0-80.0
70.0,1633.0,0.36,2.17,9.34,4.07,-0.88,0.08,27.57,70.0-80.0
70.0,1819.0,-1.42,-1.62,10.17,-1.68,0.89,-2.33,27.56,70.0-80.0
70.0,1851.0,0.21,1.03,9.83,0.56,-3.65,1.3,27.56,70.0-80.0
70.0,2322.0,-0.47,-0.99,10.5,-0.31,0.22,-2.04,27.56,70.0-80.0
70.0,1495.0,0.12,1.17,9.9,0.21,-4.78,2.56,27.57,70.0-80.0
70.0,1385.0,-0.29,-1.2,10.57,-0.51,0.21,-1.25,27.57,70.0-80.0
70.0,897.0,1.24,-1.33,9.89,-3.5,-0.69,2.04,27.56,70.0-80.0
70.0,855.0,-1.68,3.24,8.73,5.82,2.92,1.43,27.55,70.0-80.0
70.0,894.0,1.32,-1.35,9.88,-3.36,-0.31,0.79,27.56,70.0-80.0
70.0,1428.0,-1.79,3.39,8.63,6.34,3.33,0.37,27.56,70.0-80.0
70.0,1131.0,-1.07,-1.8,9.89,-2.23,2.78,-2.15,27.57,70.0-80.0
70.0,1473.0,0.01,1.31,10.04,-0.52,-5.67,0.93,27.56,70.0-80.0
70.0,1424.0,-1.34,-1.75,9.78,-1.87,3.55,-1.65,27.58,70.0-80.0
70.0,1298.0,-0.35,1.35,9.94,-0.87,-4.88,2.0,27.56,70.0-80.0
70.0,637.0,-0.04,-0.98,11.17,-0.07,-2.69,-1.05,27.56,70.0-80.0
70.0,0.0,0.98,-2.57,9.32,-5.51,-0.01,0.84,27.56,70.0-80.0
70.0,929.0,-0.39,-0.27,11.46,0.48,-3.81,-0.56,27.55,70.0-80.0
70.0,354.0,0.66,-2.9,9.32,-6.26,-0.02,-0.15,27.54,70.0-80.0
70.0,1350.0,1.51,2.68,9.95,5.14,-0.92,1.66,27.57,70.0-80.0
70.0,1623.0,-2.44,-1.96,8.8,0.28,4.86,-2.88,27.55,70.0-80.0
70.0,1982.0,2.22,2.15,10.86,3.34,-5.09,1.31,27.56,70.0-80.0
70.0,2112.0,-1.64,-2.27,8.59,0.62,4.37,-3.04,27.55,70.0-80.0
70.0,770.0,0.69,0.57,9.33,-0.66,4.48,0.72,27.55,70.0-80.0
70.0,128.0,-3.92,4.37,9.42,6.74,-0.28,2.3,27.56,70.0-80.0
70.0,1077.0,1.55,-0.45,9.6,-1.88,3.88,1.19,27.58,70.0-80.0
70.0,1435.0,-3.11,4.77,8.85,8.49,1.32,3.36,27.56,70.0-80.0
70.0,677.0,-1.47,-2.28,8.93,-3.64,5.21,-1.45,27.56,70.0-80.0
70.0,2128.0,-1.44,4.49,8.8,9.33,2.14,3.2,27.58,70.0-80.0
70.0,1482.0,-2.61,-1.89,8.66,-1.55,6.68,-2.47,27.54,70.0-80.0
70.0,262.0,-1.13,1.92,10.11,-1.5,-1.58,0.87,27.57,70.0-80.0
70.0,419.0,-1.89,1.39,10.85,2.41,-5.84,-0.49,27.56,70.0-80.0
70.0,1248.0,-0.59,1.59,9.74,-0.81,2.92,0.64,27.57,70.0-80.0
70.0,1872.0,-3.53,3.59,10.03,5.06,-3.79,1.63,27.53,70.0-80.0
70.0,557.0,-0.01,-3.53,9.4,-7.79,2.71,-2.24,27.55,70.0-80.0
70.0,1245.0,2.07,1.37,11.73,-1.49,-12.28,3.05,27.56,70.0-80.0
70.0,1564.0,-0.75,-2.93,9.02,-5.67,4.48,-1.92,27.56,70.0-80.0
70.0,868.0,0.03,1.6,11.41,-2.86,-9.8,2.43,27.56,70.0-80.0
70.0,398.0,0.28,-1.07,10.87,1.11,-3.99,-1.11,27.56,70.0-80.0
70.0,987.0,1.03,-3.79,9.36,-7.19,1.98,-2.35,27.59,70.0-80.0
70.0,1325.0,-1.37,1.19,10.68,2.59,-6.33,-0.05,27.57,70.0-80.0
70.0,822.0,0.3,-3.95,9.68,-8.47,1.76,-3.22,27.56,70.0-80.0
70.0,2379.0,3.24,1.7,11.85,1.67,-10.69,2.53,27.55,70.0-80.0
70.0,1726.0,-0.67,-2.36,8.52,1.8,4.97,-2.43,27.57,70.0-80.0
70.0,528.0,2.0,1.31,11.8,-1.99,-13.1,2.75,27.56,70.0-80.0
70.0,213.0,0.25,-1.81,10.14,1.51,0.18,-1.31,27.55,70.0-80.0
70.0,976.0,1.53,-3.29,9.45,-6.11,2.54,-1.08,27.57,70.0-80.0
70.0,1568.0,0.55,3.87,9.94,8.65,-0.62,3.88,27.56,70.0-80.0
70.0,1163.0,0.53,-4.01,9.6,-8.18,1.53,-2.29,27.56,70.0-80.0
70.0,2032.0,2.88,2.35,11.54,4.48,-7.18,2.91,27.56,70.0-80.0
70.0,1857.0,-1.39,-2.37,7.92,1.81,6.1,-3.13,27.53,70.0-80.0
70.0,1098.0,1.44,-0.35,9.72,-2.29,5.82,-0.69,27.54,70.0-80.0
70.0,826.0,-0.07,-2.05,9.63,1.81,2.24,-2.35,27.56,70.0-80.0
70.0,423.0,1.74,-2.57,9.4,-5.18,3.49,-1.27,27.52,70.0-80.0
70.0,1920.0,-0.24,4.31,9.41,9.73,0.79,4.24,27.56,70.0-80.0
70.0,686.0,-2.93,-2.18,7.97,-0.52,7.55,-2.41,27.56,70.0-80.0
70.0,1904.0,2.68,2.73,11.27,5.59,-5.58,3.69,27.55,70.0-80.0
70.0,1264.0,-1.92,-2.2,7.69,1.78,6.77,-2.52,27.57,70.0-80.0
70.0,496.0,1.18,-0.07,9.86,-2.37,5.82,-0.27,27.56,70.0-80.0
70.0,1090.0,-3.13,5.3,8.23,9.76,0.91,3.54,27.56,70.0-80.0
70.0,271.0,1.63,-2.34,9.39,-4.84,3.75,-1.66,27.57,70.0-80.0
70.0,1532.0,-0.47,4.44,9.16,9.94,1.04,3.52,27.58,70.0-80.0
70.0,561.0,-2.91,-2.17,8.18,-0.69,7.51,-2.99,27.58,70.0-80.0
70.0,393.0,-0.61,1.32,10.17,-1.91,2.59,0.93,27.56,70.0-80.0
70.0,0.0,-2.03,-2.29,7.74,1.43,6.58,-2.41,27.57,70.0-80.0
70.0,119.0,1.21,0.07,9.87,-2.39,5.42,0.26,27.58,70.0-80.0
70.0,1089.0,-3.12,5.4,8.2,9.64,0.71,4.27,27.58,70.0-80.0
70.0,814.0,-1.67,-2.88,9.1,-4.58,5.91,-3.04,27.56,70.0-80.0
70.0,1311.0,-0.62,4.56,9.06,10.02,1.33,3.88,27.56,70.0-80.0
70.0,1157.0,-2.99,-2.25,8.2,-0.92,7.5,-3.25,27.56,70.0-80.0
70.0,235.0,-0.65,1.27,10.17,-2.11,2.59,0.37,27.59,70.0-80.0
70.0,0.0,-3.13,4.31,9.36,6.46,-4.02,2.75,27.56,70.0-80.0
70.0,735.0,1.17,-0.02,9.91,-2.4,5.42,-0.24,27.56,70.0-80.0
70.0,2496.0,-3.11,5.28,8.26,9.61,0.21,4.1,27.56,70.0-80.0
70.0,847.0,-1.66,-2.91,9.06,-4.51,6.37,-2.85,27.57,70.0-80.0
70.0,1351.0,-1.36,1.68,10.84,-3.03,-4.98,1.69,27.57,70.0-80.0
70.0,546.0,-2.96,-2.23,8.23,-0.95,7.12,-2.76,27.57,70.0-80.0
70.0,537.0,-0.6,1.31,10.19,-2.08,2.74,0.67,27.57,70.0-80.0
70.0,1241.0,-3.15,4.37,9.27,6.59,-3.88,2.84,27.56,70.0-80.0
70.0,1166.0,-0.37,-3.71,9.4,-7.53,4.49,-3.56,27.54,70.0-80.0
70.0,2125.0,-2.96,5.35,8.35,9.78,0.4,3.81,27.55,70.0-80.0
70.0,1419.0,-1.77,-2.89,9.07,-4.43,6.06,-3.27,27.54,70.0-80.0
70.0,89.0,-1.31,1.58,10.87,-3.0,-4.78,1.42,27.56,70.0-80.0
70.0,239.0,-1.2,1.7,10.48,3.64,-6.23,1.51,27.55,70.0-80.0
70.0,531.0,-0.41,1.1,10.28,-2.17,2.63,0.79,27.56,70.0-80.0
70.0,1186.0,-3.1,4.49,9.15,6.89,-3.72,3.37,27.55,70.0-80.0
70.0,587.0,-0.43,-3.72,9.41,-7.34,4.58,-3.27,27.56,70.0-80.0
70.0,2081.0,0.59,1.58,11.39,-2.48,-11.27,2.17,27.55,70.0-80.0
70.0,1643.0,-1.98,-2.79,8.94,-4.06,6.48,-3.37,27.56,70.0-80.0
70.0,1063.0,-1.28,1.59,10.81,-2.93,-3.73,1.11,27.55,70.0-80.0
70.0,0.0,-1.63,2.15,10.37,4.1,-5.68,1.33,27.56,70.0-80.0
70.0,461.0,-0.14,-4.11,9.65,-8.78,3.41,-3.34,27.56,70.0-80.0
70.0,2243.0,-3.3,4.68,9.18,7.21,-3.08,3.3,27.55,70.0-80.0
70.0,1153.0,-0.63,-3.53,9.23,-7.12,4.78,-3.08,27.56,70.0-80.0
70.0,2131.0,0.33,1.59,11.43,-2.78,-10.7,2.49,27.56,70.0-80.0
70.0,721.0,-0.08,-0.35,10.77,2.44,-3.61,-0.26,27.54,70.0-80.0
70.0,708.0,-1.33,1.6,10.68,-2.9,-3.33,1.45,27.55,70.0-80.0
70.0,918.0,-1.52,2.34,10.42,4.4,-6.1,1.62,27.53,70.0-80.0
70.0,890.0,-0.23,-4.07,9.61,-8.64,2.97,-3.45,27.54,70.0-80.0
70.0,2071.0,2.93,1.56,11.7,-0.04,-12.18,2.64,27.55,70.0-80.0
70.0,1653.0,-0.73,-3.49,9.07,-6.7,5.27,-3.46,27.55,70.0-80.0
70.0,1573.0,0.15,1.59,11.4,-2.86,-10.22,2.18,27.55,70.0-80.0
70.0,16.0,-0.12,-0.1,10.8,2.59,-4.01,0.03,27.56,70.0-80.0
70.0,944.0,0.34,-4.12,9.7,-8.49,1.67,-2.49,27.56,70.0-80.0
70.0,1773.0,-1.84,2.6,10.27,4.48,-5.73,2.06,27.55,70.0-80.0
70.0,838.0,-0.3,-4.01,9.63,-8.78,3.12,-3.2,27.54,70.0-80.0
70.0,2128.0,2.54,1.57,11.72,-0.4,-12.31,2.84,27.55,70.0-80.0
70.0,1651.0,0.0,-1.72,9.82,2.19,0.86,-1.94,27.56,70.0-80.0
70.0,498.0,-0.06,1.63,11.25,-2.86,-9.5,1.86,27.57,70.0-80.0
70.0,141.0,-0.3,-0.07,10.8,2.65,-4.33,-0.29,27.55,70.0-80.0
70.0,1043.0,0.26,-4.22,9.66,-8.58,1.84,-2.96,27.56,70.0-80.0
70.0,1323.0,2.81,2.54,11.42,4.25,-7.56,3.6,27.57,70.0-80.0
70.0,1533.0,-0.29,-4.02,9.53,-8.66,3.43,-3.16,27.56,70.0-80.0
70.0,1738.0,2.39,1.66,11.69,-0.68,-12.15,3.1,27.56,70.0-80.0
70.0,877.0,-0.19,-1.47,9.85,2.44,0.72,-1.45,27.56,70.0-80.0
70.0,511.0,1.4,-3.4,9.65,-6.83,2.49,-1.97,27.56,70.0-80.0
70.0,1535.0,-0.53,0.24,10.84,2.86,-4.51,0.06,27.57,70.0-80.0
70.0,720.0,0.02,-4.18,9.65,-8.84,2.11,-3.14,27.55,70.0-80.0
70.0,1971.0,3.03,2.41,11.47,3.64,-8.17,3.27,27.58,70.0-80.0
70.0,1718.0,-0.92,-2.22,8.3,1.93,4.42,-2.47,27.55,70.0-80.0
70.0,1313.0,2.23,1.56,11.68,-1.09,-12.17,2.72,27.55,70.0-80.0
70.0,381.0,-0.1,-1.43,10.04,2.24,-0.18,-1.4,27.56,70.0-80.0
70.0,1879.0,1.37,-3.58,9.59,-6.93,2.22,-1.97,27.56,70.0-80.0
70.0,2606.0,1.07,3.82,10.33,8.19,-2.04,4.06,27.55,70.0-80.0
70.0,1535.0,-0.08,-4.2,9.76,-8.98,1.72,-2.84,27.56,70.0-80.0
70.0,2667.0,3.12,2.2,11.57,3.09,-8.89,3.39,27.56,70.0-80.0
70.0,1924.0,-0.89,-2.12,8.41,2.04,4.25,-2.3,27.55,70.0-80.0
70.0,622.0,1.86,-1.7,9.82,-4.35,4.52,-1.28,27.55,70.0-80.0
70.0,1153.0,-0.07,-1.3,10.24,2.09,-0.85,-1.45,27.56,70.0-80.0
70.0,1577.0,1.2,-3.71,9.69,-7.3,2.01,-2.32,27.55,70.0-80.0
70.0,2203.0,1.44,3.54,10.57,7.69,-2.71,3.85,27.56,70.0-80.0
70.0,2077.0,-2.21,-2.27,7.77,0.86,6.98,-2.5,27.56,70.0-80.0
70.0,1200.0,3.3,2.04,11.68,2.47,-9.74,3.36,27.57,70.0-80.0
70.0,1471.0,-0.75,-2.17,8.66,2.07,3.76,-2.09,27.54,70.0-80.0
70.0,1105.0,1.96,-1.93,9.83,-4.52,4.08,-1.21,27.57,70.0-80.0
70.0,1435.0,-1.43,4.9,8.66,10.39,0.85,4.18,27.57,70.0-80.0
70.0,801.0,1.14,-3.78,9.73,-7.45,1.55,-2.3,27.55,70.0-80.0
70.0,2289.0,1.49,3.59,10.54,7.59,-2.82,3.75,27.57,70.0-80.0
70.0,2927.0,-2.2,-2.13,7.72,1.12,6.89,-2.58,27.54,70.0-80.0
70.0,1307.0,0.79,0.08,9.93,-2.51,5.33,-0.26,27.55,70.0-80.0
70.0,956.0,-0.81,-2.08,8.59,2.1,3.65,-2.17,27.54,70.0-80.0
70.0,1828.0,1.98,-2.14,9.88,-4.72,4.1,-1.34,27.55,70.0-80.0
70.0,2612.0,-1.34,4.83,8.66,10.0,0.71,4.15,27.56,70.0-80.0
70.0,1375.0,-2.51,-2.1,8.38,-1.15,8.35,-2.59,27.56,70.0-80.0
70.0,2416.0,1.55,3.5,10.54,7.38,-2.65,3.78,27.58,70.0-80.0
70.0,2436.0,-2.05,-2.12,7.69,1.35,6.9,-2.52,27.55,70.0-80.0
70.0,898.0,0.84,0.02,9.83,-2.37,5.09,-0.31,27.56,70.0-80.0
70.0,1477.0,-3.05,5.16,8.68,9.13,-1.24,3.56,27.54,70.0-80.0
70.0,1616.0,1.88,-2.11,9.75,-4.58,4.07,-1.4,27.57,70.0-80.0
70.0,2073.0,-1.1,4.72,8.98,9.91,0.24,3.98,27.54,70.0-80.0
70.0,1245.0,-2.69,-2.08,8.26,-1.1,8.43,-2.69,27.55,70.0-80.0
70.0,1977.0,-0.9,1.34,10.11,-2.31,0.95,1.02,27.56,70.0-80.0
70.0,831.0,-1.93,-2.12,7.8,1.29,6.97,-2.37,27.57,70.0-80.0
70.0,1167.0,0.87,-0.08,9.9,-2.69,4.49,-0.09,27.57,70.0-80.0
70.0,2448.0,-2.86,5.14,8.73,9.09,-0.91,3.59,27.55,70.0-80.0
70.0,943.0,-1.81,-2.75,8.79,-4.58,7.0,-3.1,27.54,70.0-80.0
70.0,2211.0,-0.9,4.67,9.02,9.91,0.11,3.89,27.55,70.0-80.0
70.0,2110.0,-2.86,-2.07,8.19,-0.83,8.46,-2.69,27.54,70.0-80.0
70.0,2209.0,-0.8,1.23,10.15,-2.25,1.08,0.87,27.57,70.0-80.0
70.0,781.0,-2.76,3.81,9.8,6.05,-4.37,2.47,27.57,70.0-80.0
70.0,1977.0,0.95,-0.1,9.87,-2.61,4.81,-0.14,27.57,70.0-80.0
70.0,2433.0,-2.94,5.15,8.62,9.27,-0.51,3.68,27.57,70.0-80.0
70.0,1140.0,-1.84,-2.66,8.86,-4.55,6.72,-3.05,27.54,70.0-80.0
70.0,2767.0,-0.9,1.83,10.8,-2.68,-5.35,1.94,27.56,70.0-80.0
70.0,2134.0,-2.83,-2.03,8.29,-0.97,8.32,-2.66,27.58,70.0-80.0
70.0,2013.0,-0.8,1.25,10.04,-2.29,1.3,0.89,27.57,70.0-80.0
70.0,854.0,-2.86,3.87,9.83,6.05,-4.33,2.41,27.58,70.0-80.0
70.0,1885.0,-0.64,-3.69,9.36,-7.76,3.97,-3.37,27.57,70.0-80.0
70.0,2219.0,-2.85,5.03,8.73,9.13,-0.83,3.59,27.59,70.0-80.0
70.0,2060.0,-1.85,-2.69,8.98,-4.45,6.75,-2.96,27.55,70.0-80.0
70.0,1609.0,-1.19,1.79,10.74,-2.68,-5.12,1.89,27.56,70.0-80.0
70.0,1533.0,-1.07,1.31,10.76,3.5,-6.07,0.96,27.54,70.0-80.0
70.0,1137.0,-0.67,1.2,10.05,-2.17,1.79,0.85,27.54,70.0-80.0
70.0,1626.0,-2.86,4.1,9.69,6.48,-4.51,2.62,27.55,70.0-80.0
70.0,736.0,-0.61,-3.59,9.28,-7.53,4.48,-3.43,27.54,70.0-80.0
70.0,2588.0,0.98,1.78,11.34,-2.11,-10.7,2.53,27.53,70.0-80.0
70.0,1563.0,-1.93,-2.62,8.69,-4.02,7.29,-3.1,27.55,70.0-80.0
70.0,918.0,-1.22,1.73,10.86,-2.97,-4.52,1.75,27.55,70.0-80.0
70.0,883.0,-1.37,1.6,10.52,3.6,-6.08,1.24,27.54,70.0-80.0
70.0,1618.0,-0.17,-4.27,9.77,-9.16,2.6,-3.36,27.53,70.0-80.0
70.0,2599.0,-2.97,4.25,9.48,6.83,-3.99,2.96,27.56,70.0-80.0
70.0,1408.0,-0.84,-3.57,9.28,-7.16,5.06,-3.42,27.53,70.0-80.0
70.0,2928.0,0.54,1.86,11.31,-2.11,-10.17,2.44,27.51,70.0-80.0
70.0,1600.0,-0.15,-0.53,10.64,2.57,-3.3,-0.53,27.56,70.0-80.0
70.0,938.0,-1.34,1.72,10.61,-2.54,-3.21,1.54,27.54,70.0-80.0
70.0,1328.0,-1.62,2.1,10.47,4.15,-5.88,1.39,27.55,70.0-80.0
70.0,1597.0,-0.32,-4.04,9.62,-8.82,3.03,-3.46,27.52,70.0-80.0
70.0,2499.0,2.79,1.76,11.73,0.13,-11.89,3.14,27.54,70.0-80.0
70.0,1137.0,-0.77,-3.41,9.18,-6.95,5.33,-3.4,27.54,70.0-80.0
70.0,1274.0,0.07,1.76,11.22,-2.71,-9.79,2.41,27.54,70.0-80.0
70.0,541.0,-0.28,-0.25,10.77,2.44,-3.81,-0.2,27.54,70.0-80.0
70.0,1367.0,0.33,-4.26,9.63,-8.63,1.93,-2.91,27.54,70.0-80.0
70.0,1757.0,-1.85,2.52,10.26,4.6,-5.59,1.71,27.54,70.0-80.0
70.0,1480.0,-0.39,-4.08,9.58,-8.78,3.41,-3.52,27.55,70.0-80.0
70.0,2927.0,2.47,1.76,11.6,-0.17,-11.77,2.94,27.54,70.0-80.0
70.0,2439.0,-0.18,-1.59,9.74,2.42,0.77,-1.53,27.54,70.0-80.0
70.0,827.0,-0.11,1.86,11.23,-2.58,-9.04,2.26,27.54,70.0-80.0
70.0,477.0,-0.33,0.13,10.76,2.8,-4.49,0.08,27.55,70.0-80.0
70.0,1747.0,0.24,-4.21,9.69,-8.73,1.95,-3.04,27.54,70.0-80.0
70.0,2547.0,2.95,2.49,11.51,3.84,-8.19,3.56,27.53,70.0-80.0
70.0,926.0,-0.39,-4.02,9.43,-8.67,3.59,-3.49,27.53,70.0-80.0
70.0,1977.0,2.26,1.63,11.64,-0.98,-12.18,2.88,27.53,70.0-80.0
70.0,1835.0,-0.04,-1.44,9.98,2.22,-0.3,-1.37,27.55,70.0-80.0
70.0,624.0,1.32,-3.69,9.77,-7.07,2.27,-2.38,27.54,70.0-80.0
70.0,1475.0,-0.52,0.5,10.73,3.0,-5.07,0.29,27.55,70.0-80.0
70.0,214.0,-0.02,-4.31,9.7,-8.98,1.95,-3.23,27.52,70.0-80.0
70.0,2714.0,3.21,2.31,11.58,3.2,-9.29,3.4,27.57,70.0-80.0
70.0,1959.0,-0.45,-3.88,9.34,-8.21,3.97,-3.59,27.56,70.0-80.0
70.0,1188.0,1.94,1.62,11.58,-1.39,-12.02,2.85,27.55,70.0-80.0
70.0,0.0,-0.14,-1.1,10.24,2.45,-1.21,-1.07,27.54,70.0-80.0
70.0,1158.0,1.0,-3.86,9.72,-7.51,2.34,-2.5,27.56,70.0-80.0
70.0,2106.0,-0.79,1.09,10.68,3.58,-5.38,0.84,27.54,70.0-80.0
70.0,1475.0,-0.24,-4.23,9.71,-9.27,2.08,-3.4,27.54,70.0-80.0
70.0,2352.0,3.09,2.09,11.71,1.98,-10.2,3.28,27.54,70.0-80.0
70.0,1131.0,-0.5,-2.05,8.81,2.01,2.63,-1.95,27.53,70.0-80.0
70.0,799.0,1.26,1.66,11.56,-2.11,-11.42,2.62,27.54,70.0-80.0
70.0,1585.0,-0.19,-0.8,10.44,2.47,-2.33,-0.72,27.55,70.0-80.0
70.0,766.0,0.69,-4.21,9.74,-8.2,2.1,-2.75,27.55,70.0-80.0
70.0,2331.0,2.13,3.22,10.98,6.27,-5.07,3.86,27.56,70.0-80.0
70.0,1254.0,-0.34,-4.22,9.57,-9.18,2.69,-3.54,27.53,70.0-80.0
70.0,1940.0,2.96,1.97,11.62,1.11,-10.86,3.25,27.53,70.0-80.0
70.0,880.0,-0.32,-1.75,9.37,2.28,1.43,-1.75,27.54,70.0-80.0
70.0,910.0,1.54,-3.12,9.83,-6.28,3.01,-2.12,27.54,70.0-80.0
70.0,791.0,-0.46,-0.18,10.6,2.92,-3.41,-0.32,27.56,70.0-80.0
70.0,912.0,0.38,-4.29,9.74,-8.86,1.87,-3.23,27.56,70.0-80.0
70.0,2143.0,2.67,2.77,11.35,4.63,-7.04,3.68,27.54,70.0-80.0
70.0,1063.0,-1.15,-2.21,8.2,1.96,4.74,-2.21,27.53,70.0-80.0
70.0,1206.0,2.47,1.82,11.61,-0.28,-11.44,3.02,27.54,70.0-80.0
70.0,675.0,-0.26,-1.46,9.84,2.25,-0.3,-1.31,27.54,70.0-80.0
70.0,1371.0,1.34,-3.7,9.76,-7.07,2.57,-2.44,27.55,70.0-80.0
70.0,2022.0,1.0,3.89,10.11,8.34,-2.14,3.86,27.53,70.0-80.0
70.0,1301.0,0.05,-4.27,9.76,-9.02,1.85,-3.39,27.52,70.0-80.0
70.0,2288.0,2.98,2.34,11.43,3.29,-8.42,3.04,27.52,70.0-80.0
70.0,1530.0,-0.95,-2.06,8.5,2.18,4.08,-2.26,27.54,70.0-80.0
70.0,526.0,1.74,-1.45,9.85,-3.88,4.45,-1.05,27.55,70.0-80.0
70.0,1617.0,-0.0,-1.62,9.86,1.83,-0.24,-1.68,27.56,70.0-80.0
70.0,0.0,1.8,-3.0,9.82,-5.83,2.27,-1.46,27.56,70.0-80.0
70.0,2482.0,-0.31,3.8,9.27,8.22,0.59,3.01,27.56,70.0-80.0
70.0,1531.0,-2.38,-1.64,8.27,0.12,8.0,-1.8,27.54,70.0-80.0
70.0,1741.0,1.14,2.81,10.02,5.99,-1.67,2.35,27.54,70.0-80.0
70.0,1616.0,-1.93,-1.81,8.41,0.57,6.8,-1.92,27.54,70.0-80.0
70.0,1248.0,-0.77,1.73,9.42,0.25,1.3,1.51,27.55,70.0-80.0
70.0,417.0,-2.51,1.41,10.27,2.8,-1.93,-0.85,27.54,70.0-80.0
70.0,523.0,-0.26,1.31,9.53,0.22,-0.19,1.53,27.55,70.0-80.0
70.0,253.0,-2.14,1.22,10.1,2.82,-0.48,-1.05,27.54,70.0-80.0
70.0,592.0,0.73,-1.94,9.55,-4.74,0.27,0.03,27.55,70.0-80.0
70.0,1613.0,-1.03,1.95,9.8,2.19,-0.91,0.29,27.54,70.0-80.0
70.0,949.0,1.17,-1.13,9.81,-2.72,0.18,1.08,27.56,70.0-80.0
70.0,907.0,-1.79,1.38,9.84,1.44,0.1,-0.82,27.55,70.0-80.0
70.0,393.0,-0.38,-0.93,9.03,-1.82,2.42,0.44,27.54,70.0-80.0
70.0,672.0,0.1,1.63,9.41,2.45,-1.44,0.72,27.53,70.0-80.0
70.0,408.0,0.33,-0.75,9.51,-2.55,0.27,0.73,27.54,70.0-80.0
70.0,846.0,-1.28,1.35,9.18,2.31,1.85,-0.79,27.55,70.0-80.0
70.0,907.0,-0.23,-0.67,9.67,-1.82,1.01,0.34,27.54,70.0-80.0
70.0,534.0,-0.3,1.3,9.31,2.33,-1.75,0.5,27.54,70.0-80.0
