Speed,Voice,Acceleration X,Acceleration Y,Acceleration Z,Gyro X,Gyro Y,Gyro Z,Temperature,Speed_Range
70.0,835.0,0.51,-1.9,7.99,-1.84,-1.45,-1.66,18.24,70.0-80.0
70.0,218.0,0.02,0.87,9.64,1.76,5.16,0.07,18.28,70.0-80.0
70.0,1298.0,-1.41,-3.07,8.99,-3.27,0.92,-2.02,18.26,70.0-80.0
70.0,1725.0,1.74,0.33,12.08,0.21,-7.77,2.77,18.26,70.0-80.0
70.0,1395.0,-1.48,1.08,10.01,-0.57,2.38,-1.88,18.26,70.0-80.0
70.0,991.0,1.3,1.97,10.85,4.02,-6.91,1.72,18.28,70.0-80.0
70.0,304.0,-0.94,0.93,9.7,-0.14,2.3,-1.43,18.27,70.0-80.0
70.0,511.0,-0.11,-2.75,7.87,-2.86,0.69,-2.51,18.27,70.0-80.0
70.0,0.0,0.41,0.1,9.73,0.04,4.61,-0.33,18.26,70.0-80.0
70.0,372.0,-0.7,-2.63,7.69,-2.63,4.29,-1.09,18.25,70.0-80.0
70.0,1107.0,1.47,-0.69,10.21,-2.05,1.3,0.54,18.24,70.0-80.0
70.0,1200.0,-0.4,-1.03,10.38,-1.68,1.77,-0.43,18.25,70.0-80.0
70.0,1681.0,0.3,1.31,12.25,0.7,-10.5,3.69,18.27,70.0-80.0
70.0,1236.0,-0.14,-0.8,10.6,-0.3,2.21,-1.64,18.26,70.0-80.0
70.0,1280.0,-0.66,1.23,11.56,0.03,-9.8,2.17,18.24,70.0-80.0
70.0,1093.0,1.98,0.96,9.93,1.69,2.38,-2.07,18.23,70.0-80.0
70.0,426.0,-1.64,0.99,6.25,2.85,2.85,0.07,18.25,70.0-80.0
70.0,959.0,2.11,0.44,10.0,0.41,-0.57,-1.12,18.25,70.0-80.0
70.0,1353.0,-0.81,0.42,8.09,2.27,3.77,1.67,18.25,70.0-80.0
70.0,1043.0,-2.03,1.63,9.18,0.73,-2.47,0.91,18.25,70.0-80.0
70.0,1393.0,0.48,0.15,12.27,0.42,0.05,1.4,18.24,70.0-80.0
70.0,1236.0,-1.46,1.17,8.73,2.04,0.56,-0.18,18.26,70.0-80.0
70.0,1133.0,0.55,1.21,10.16,1.26,-4.84,1.63,18.26,70.0-80.0
70.0,594.0,0.37,1.06,10.03,1.11,4.18,-1.58,18.23,70.0-80.0
70.0,638.0,-0.94,0.43,9.08,2.37,1.77,-0.53,18.25,70.0-80.0
70.0,960.0,-1.34,2.12,7.69,1.9,3.81,-1.64,18.26,70.0-80.0
70.0,1232.0,0.98,1.38,9.64,2.86,-1.98,1.4,18.24,70.0-80.0
70.0,1008.0,-0.01,0.72,10.89,-0.54,3.84,-0.6,18.27,70.0-80.0
70.0,1385.0,-1.37,0.05,9.65,1.05,0.99,0.76,18.25,70.0-80.0
70.0,1268.0,-0.8,1.64,8.36,0.96,2.26,-0.63,18.26,70.0-80.0
70.0,1010.0,0.74,0.58,10.16,1.52,-2.3,1.55,18.24,70.0-80.0
70.0,1483.0,0.11,0.64,10.86,0.31,2.35,-0.76,18.27,70.0-80.0
70.0,955.0,-1.41,0.13,9.96,1.73,0.64,-0.08,18.25,70.0-80.0
70.0,1264.0,-0.71,1.44,8.1,1.55,1.86,-1.85,18.25,70.0-80.0
70.0,1296.0,0.61,0.76,9.99,1.41,-2.7,1.11,18.24,70.0-80.0
70.0,1409.0,0.21,0.69,10.44,-0.08,2.49,-1.06,18.25,70.0-80.0
70.0,1341.0,-0.88,0.11,10.98,1.05,-1.14,1.34,18.24,70.0-80.0
70.0,1263.0,-1.31,1.13,8.43,1.0,2.9,-1.03,18.25,70.0-80.0
70.0,1408.0,0.03,1.42,9.55,1.67,-2.84,2.25,18.26,70.0-80.0
70.0,1323.0,0.3,0.93,9.33,-0.42,2.38,-1.2,18.25,70.0-80.0
70.0,1762.0,-0.03,0.98,10.43,2.16,-1.28,1.18,18.24,70.0-80.0
70.0,1167.0,-0.76,0.74,9.41,2.13,1.88,-2.37,18.26,70.0-80.0
70.0,1761.0,-0.54,1.22,10.16,1.99,-2.09,1.47,18.23,70.0-80.0
70.0,1895.0,-0.55,1.26,8.21,1.25,2.36,-2.42,18.27,70.0-80.0
70.0,1722.0,0.03,0.92,9.93,1.78,-2.05,1.44,18.25,70.0-80.0
70.0,2042.0,0.43,-1.62,9.62,-0.05,-1.34,-1.09,18.26,70.0-80.0
70.0,1441.0,0.59,0.38,11.33,-1.23,-0.96,2.66,18.25,70.0-80.0
70.0,1535.0,-0.61,-0.49,9.69,0.48,0.7,-0.8,18.25,70.0-80.0
70.0,1455.0,0.26,0.01,10.93,-0.88,-3.24,2.69,18.24,70.0-80.0
70.0,997.0,-0.66,-3.19,10.91,-2.81,-2.73,-1.41,18.25,70.0-80.0
70.0,1303.0,-0.35,1.53,9.54,0.12,2.33,0.47,18.27,70.0-80.0
70.0,913.0,0.4,-2.42,10.03,-1.2,-1.98,-2.01,18.27,70.0-80.0
70.0,1085.0,0.29,0.62,10.54,-1.17,-0.08,1.26,18.25,70.0-80.0
70.0,1017.0,0.32,-2.68,10.54,-3.33,-1.56,-1.37,18.24,70.0-80.0
70.0,656.0,-1.4,1.37,10.11,0.41,4.06,-0.47,18.24,70.0-80.0
70.0,1481.0,-0.46,-4.17,11.33,-4.42,-3.19,-0.83,18.24,70.0-80.0
70.0,1341.0,-0.51,0.97,9.27,-0.59,4.15,0.76,18.24,70.0-80.0
70.0,1135.0,-0.45,0.84,8.59,1.64,1.94,0.43,18.24,70.0-80.0
70.0,1697.0,-0.34,2.18,8.41,1.66,3.55,-1.91,18.24,70.0-80.0
70.0,1584.0,0.05,-1.1,9.2,-1.56,0.08,-1.03,18.22,70.0-80.0
70.0,1977.0,-0.45,1.7,9.65,1.22,4.18,-1.99,18.25,70.0-80.0
70.0,1815.0,-0.27,2.08,9.86,4.37,0.46,1.09,18.24,70.0-80.0
70.0,1677.0,-0.52,0.89,8.62,1.86,1.49,-2.16,18.24,70.0-80.0
70.0,1767.0,-0.99,1.92,9.14,3.66,1.97,0.98,18.22,70.0-80.0
70.0,1857.0,-0.4,1.78,7.86,1.73,2.49,-1.84,18.23,70.0-80.0
70.0,2203.0,0.52,1.0,10.23,2.42,-3.8,2.65,18.25,70.0-80.0
70.0,2046.0,0.17,-3.11,9.82,-1.42,-2.32,-0.8,18.25,70.0-80.0
70.0,2059.0,0.53,1.87,9.72,4.13,-2.12,2.27,18.26,70.0-80.0
70.0,1824.0,-0.03,-1.55,9.32,0.33,-1.37,-1.59,18.28,70.0-80.0
70.0,1424.0,1.16,-1.11,11.48,-2.75,-3.48,1.59,18.25,70.0-80.0
70.0,1294.0,0.17,-4.15,11.28,-4.96,-2.87,-1.61,18.24,70.0-80.0
70.0,1153.0,0.67,-0.92,11.41,-1.53,-3.6,1.7,18.22,70.0-80.0
70.0,1383.0,-0.59,-4.55,11.21,-4.37,-3.11,-1.32,18.25,70.0-80.0
70.0,1744.0,0.19,0.59,9.29,-1.62,2.9,0.74,18.26,70.0-80.0
70.0,1850.0,-0.38,0.04,9.32,-0.28,0.11,0.3,18.25,70.0-80.0
70.0,1727.0,1.07,-0.0,10.1,-2.48,0.55,1.78,18.25,70.0-80.0
70.0,1813.0,0.66,-2.14,9.65,-3.15,-0.37,-0.68,18.24,70.0-80.0
70.0,1584.0,-1.52,1.98,9.88,1.2,5.49,-1.55,18.25,70.0-80.0
70.0,1846.0,-0.7,2.8,9.05,5.66,2.38,1.18,18.24,70.0-80.0
70.0,2015.0,-1.73,1.83,10.16,1.05,4.24,-0.79,18.24,70.0-80.0
70.0,1894.0,-0.57,2.54,9.0,4.59,2.15,0.94,18.26,70.0-80.0
70.0,1943.0,-0.31,1.7,8.3,1.83,1.1,-1.9,18.22,70.0-80.0
70.0,2416.0,0.68,0.36,10.4,1.81,-3.83,2.49,18.24,70.0-80.0
70.0,2322.0,-0.58,2.35,8.15,1.86,3.1,-1.43,18.25,70.0-80.0
70.0,2469.0,0.95,1.06,9.98,3.26,-3.2,2.57,18.23,70.0-80.0
70.0,2512.0,0.23,-1.54,9.57,-0.55,-1.72,-1.18,18.24,70.0-80.0
70.0,2181.0,0.64,-0.64,11.56,-2.29,-2.46,1.93,18.23,70.0-80.0
70.0,2237.0,-0.31,-0.15,9.04,0.8,0.2,-2.11,18.24,70.0-80.0
70.0,1776.0,0.4,-0.49,11.18,-0.83,-4.36,1.81,18.24,70.0-80.0
70.0,1804.0,-0.84,-3.4,10.78,-2.68,-3.1,-1.29,18.24,70.0-80.0
70.0,2043.0,0.46,1.14,9.46,-0.69,2.3,1.11,18.24,70.0-80.0
70.0,1360.0,0.08,-2.44,9.88,-1.33,-1.86,-1.03,18.23,70.0-80.0
70.0,978.0,0.56,0.36,10.58,-1.81,0.09,2.1,18.25,70.0-80.0
70.0,1023.0,0.21,-2.76,10.13,-3.41,-1.02,-0.77,18.26,70.0-80.0
70.0,1485.0,-1.24,1.35,10.26,0.62,4.12,-0.34,18.25,70.0-80.0
70.0,1974.0,-0.51,-3.97,11.34,-4.13,-2.32,-1.03,18.23,70.0-80.0
70.0,1791.0,-0.32,0.9,9.38,-0.59,3.14,-0.08,18.26,70.0-80.0
70.0,2001.0,-1.0,0.91,8.59,1.55,2.35,-0.47,18.25,70.0-80.0
70.0,1899.0,-0.03,2.35,8.27,2.09,4.17,-2.34,18.25,70.0-80.0
70.0,1815.0,-0.01,-1.37,9.3,-2.28,-0.03,-1.03,18.26,70.0-80.0
70.0,2288.0,-0.91,2.02,9.88,1.23,5.63,-1.55,18.24,70.0-80.0
70.0,2300.0,-0.35,2.85,9.62,5.37,0.95,1.91,18.23,70.0-80.0
70.0,1975.0,-0.49,0.91,8.68,2.01,0.43,-1.29,18.22,70.0-80.0
70.0,2179.0,-0.9,2.33,8.77,4.33,2.67,1.4,18.23,70.0-80.0
70.0,2367.0,-0.31,1.58,8.62,1.57,0.76,-1.76,18.24,70.0-80.0
70.0,2416.0,-0.05,0.85,10.11,2.28,-3.33,1.91,18.25,70.0-80.0
70.0,2265.0,0.7,-2.17,9.95,-0.55,-1.63,-1.66,18.24,70.0-80.0
70.0,2062.0,0.15,1.22,10.02,3.46,-1.27,1.35,18.23,70.0-80.0
70.0,2142.0,-0.29,-0.55,9.28,0.45,-0.18,-2.02,18.23,70.0-80.0
70.0,1724.0,0.69,0.57,10.88,-0.42,-2.15,1.69,18.24,70.0-80.0
70.0,1911.0,-0.6,-2.85,10.52,-2.36,-2.14,-1.08,18.25,70.0-80.0
70.0,1411.0,-0.04,0.86,10.82,0.45,-2.81,2.27,18.23,70.0-80.0
70.0,1062.0,-0.78,-1.83,10.0,-0.34,-1.34,-0.74,18.23,70.0-80.0
70.0,1232.0,0.41,1.89,9.36,0.68,1.22,1.64,18.22,70.0-80.0
70.0,821.0,0.25,-1.06,9.54,-0.51,-1.68,-0.01,18.24,70.0-80.0
70.0,1344.0,0.87,1.53,9.77,0.47,0.98,1.21,18.23,70.0-80.0
70.0,2034.0,-0.16,-1.83,9.79,-1.46,-1.74,-1.12,18.22,70.0-80.0
70.0,2084.0,-0.36,1.08,10.5,0.82,2.69,-0.89,18.26,70.0-80.0
70.0,1793.0,-0.79,1.27,9.4,3.12,-0.26,1.47,18.25,70.0-80.0
70.0,1889.0,-1.06,1.88,9.88,1.4,2.46,0.24,18.24,70.0-80.0
70.0,1535.0,-0.36,1.12,8.94,2.8,0.46,1.29,18.23,70.0-80.0
70.0,2398.0,0.02,0.46,8.8,-0.19,0.2,-1.3,18.23,70.0-80.0
70.0,2364.0,0.43,-0.2,10.49,0.8,-3.07,2.6,18.23,70.0-80.0
70.0,2062.0,0.13,1.46,9.33,1.0,0.87,-1.24,18.23,70.0-80.0
70.0,2429.0,0.06,1.21,9.92,3.37,-2.08,2.14,18.22,70.0-80.0
70.0,2250.0,0.7,-1.56,9.69,-0.3,-1.42,-1.99,18.23,70.0-80.0
70.0,2256.0,0.38,-0.55,11.11,-2.58,-2.38,1.21,18.23,70.0-80.0
70.0,1868.0,-0.14,-0.28,9.09,0.6,-0.87,-2.37,18.22,70.0-80.0
70.0,2032.0,0.82,-0.83,11.42,-1.49,-3.39,2.08,18.22,70.0-80.0
70.0,1742.0,-0.84,-4.16,10.89,-4.19,-2.27,-0.8,18.24,70.0-80.0
70.0,1985.0,-0.09,1.01,8.94,-1.09,4.07,0.89,18.24,70.0-80.0
70.0,1361.0,-0.09,-3.94,10.66,-3.12,-2.73,-0.53,18.22,70.0-80.0
70.0,1209.0,0.52,0.27,9.74,-2.48,1.51,1.35,18.24,70.0-80.0
70.0,1678.0,0.14,-1.14,9.41,-1.41,0.66,-0.62,18.24,70.0-80.0
70.0,2090.0,-0.7,2.68,9.03,2.37,5.11,-1.72,18.23,70.0-80.0
70.0,1702.0,0.69,-2.78,9.95,-3.44,-0.85,-1.41,18.22,70.0-80.0
70.0,1776.0,-1.58,2.28,9.83,1.69,6.35,-1.5,18.22,70.0-80.0
70.0,1431.0,-0.68,3.1,9.22,5.35,1.89,1.23,18.22,70.0-80.0
70.0,2449.0,-0.32,0.79,8.39,1.54,0.58,-1.93,18.22,70.0-80.0
70.0,1855.0,-0.81,2.29,8.88,3.53,2.0,1.09,18.23,70.0-80.0
70.0,2149.0,-0.42,2.0,8.21,1.92,1.71,-1.84,18.24,70.0-80.0
70.0,1751.0,0.77,0.91,10.03,2.82,-3.95,2.3,18.23,70.0-80.0
70.0,1808.0,0.19,-2.74,10.0,-1.09,-2.85,-1.53,18.23,70.0-80.0
70.0,2541.0,0.4,1.95,9.73,4.72,-1.68,1.63,18.24,70.0-80.0
70.0,2148.0,0.11,-1.14,9.35,0.59,-1.31,-1.99,18.22,70.0-80.0
70.0,1806.0,0.86,-1.31,11.62,-2.46,-3.63,1.81,18.23,70.0-80.0
70.0,2145.0,-0.89,-4.31,11.36,-4.93,-3.07,-1.11,18.24,70.0-80.0
70.0,1645.0,0.88,-0.88,11.25,-0.68,-5.02,2.56,18.23,70.0-80.0
70.0,1199.0,-0.63,-4.59,11.0,-4.38,-3.43,-0.83,18.23,70.0-80.0
70.0,1298.0,0.57,0.0,9.59,-2.92,1.85,1.12,18.24,70.0-80.0
70.0,912.0,0.06,-1.16,9.33,-1.73,1.07,-0.77,18.24,70.0-80.0
70.0,944.0,0.81,-0.72,11.38,-3.29,-1.95,1.9,18.2,70.0-80.0
70.0,1335.0,0.03,-3.25,10.42,-4.29,-0.67,-1.56,18.22,70.0-80.0
70.0,1232.0,-1.31,1.7,10.06,1.08,5.55,-1.26,18.23,70.0-80.0
70.0,1264.0,-1.27,2.49,8.4,4.45,2.98,0.31,18.22,70.0-80.0
70.0,1781.0,-0.08,0.91,9.2,-0.88,3.11,0.18,18.22,70.0-80.0
70.0,1410.0,-0.31,0.65,8.59,0.89,2.18,0.02,18.22,70.0-80.0
70.0,1903.0,-0.21,2.37,9.03,1.69,3.1,-1.32,18.23,70.0-80.0
70.0,1023.0,0.29,2.01,9.64,4.62,-0.96,2.2,18.23,70.0-80.0
70.0,1370.0,-1.28,1.73,10.26,0.89,4.59,-0.89,18.22,70.0-80.0
70.0,1607.0,-0.99,2.43,9.06,4.97,2.14,1.21,18.2,70.0-80.0
70.0,1199.0,-0.1,1.41,8.25,2.28,1.46,-1.99,18.21,70.0-80.0
70.0,1803.0,0.21,0.11,10.54,0.89,-5.17,1.96,18.24,70.0-80.0
70.0,1632.0,0.38,1.98,8.42,1.66,2.59,-2.1,18.22,70.0-80.0
70.0,1689.0,0.51,1.03,9.8,3.14,-3.28,1.79,18.2,70.0-80.0
70.0,1907.0,0.25,-1.28,9.8,0.09,-0.46,-1.3,18.21,70.0-80.0
70.0,2331.0,0.19,-0.54,11.22,-2.17,-2.96,2.39,18.22,70.0-80.0
70.0,1626.0,-0.02,0.33,8.81,0.97,0.05,-1.55,18.21,70.0-80.0
70.0,1714.0,-0.03,-0.55,11.29,-0.86,-4.67,2.3,18.24,70.0-80.0
70.0,1737.0,-0.35,-3.38,10.09,-2.84,-1.21,-1.47,18.21,70.0-80.0
70.0,1300.0,1.13,0.88,9.69,-1.2,1.05,1.17,18.2,70.0-80.0
70.0,925.0,0.34,-1.75,9.45,-0.54,-0.35,-1.52,18.21,70.0-80.0
70.0,960.0,0.75,0.23,11.15,-1.35,-1.59,2.08,18.22,70.0-80.0
70.0,714.0,-0.44,-3.58,10.68,-3.58,-1.54,-1.17,18.23,70.0-80.0
70.0,705.0,-0.41,0.4,9.93,-0.71,2.85,0.11,18.25,70.0-80.0
70.0,838.0,-0.64,-3.14,10.48,-2.23,-2.4,-0.91,18.23,70.0-80.0
70.0,506.0,0.86,0.88,9.5,-0.74,1.28,1.34,18.23,70.0-80.0
70.0,1425.0,0.46,-1.18,9.46,-1.55,-0.38,-0.33,18.22,70.0-80.0
70.0,822.0,-0.36,0.77,9.96,-0.43,2.64,-1.5,18.19,70.0-80.0
70.0,1495.0,0.17,-2.7,10.44,-2.84,-2.12,-1.03,18.22,70.0-80.0
70.0,1455.0,-0.64,0.39,10.65,-0.45,2.76,-0.54,18.24,70.0-80.0
70.0,912.0,-0.81,0.63,9.31,1.87,0.75,0.94,18.22,70.0-80.0
70.0,1835.0,-0.22,0.91,8.44,0.41,2.55,-1.96,18.23,70.0-80.0
70.0,893.0,-0.31,-0.49,9.16,-0.17,-0.34,0.48,18.2,70.0-80.0
70.0,1220.0,-0.08,0.68,8.81,-0.46,3.3,-1.78,18.22,70.0-80.0
70.0,1404.0,0.44,1.18,9.85,2.89,-0.81,1.82,18.2,70.0-80.0
70.0,997.0,-0.02,-0.16,8.94,1.25,1.25,-1.67,18.23,70.0-80.0
70.0,1181.0,-0.36,1.54,9.75,3.61,1.27,1.53,18.25,70.0-80.0
70.0,1291.0,-0.43,0.59,8.44,1.02,1.72,-2.05,18.23,70.0-80.0
70.0,1403.0,0.29,0.24,10.7,0.15,-2.98,1.79,18.2,70.0-80.0
70.0,1195.0,-0.57,-3.22,10.25,-2.2,-2.75,-1.5,18.21,70.0-80.0
70.0,1337.0,0.73,0.64,10.39,1.54,-3.08,1.9,18.22,70.0-80.0
70.0,1448.0,-0.12,-2.07,9.49,-0.66,-1.05,-1.24,18.24,70.0-80.0
70.0,568.0,0.88,0.06,10.85,-2.03,-0.69,2.07,18.23,70.0-80.0
70.0,163.0,0.32,-3.08,10.33,-3.94,-2.15,-0.69,18.24,70.0-80.0
70.0,511.0,0.53,-1.1,11.58,-3.0,-3.71,2.4,18.22,70.0-80.0
70.0,574.0,-0.11,-4.56,11.1,-5.09,-1.76,-1.12,18.22,70.0-80.0
70.0,47.0,-1.01,2.11,9.17,0.85,5.72,-0.07,18.24,70.0-80.0
70.0,915.0,-1.47,3.41,8.17,5.2,3.51,0.37,18.22,70.0-80.0
70.0,685.0,0.65,1.34,8.99,-1.38,4.3,0.08,18.22,70.0-80.0
70.0,565.0,-1.27,1.89,8.53,2.51,3.59,-0.91,18.22,70.0-80.0
70.0,691.0,-0.07,3.79,8.64,4.11,4.27,-1.41,18.21,70.0-80.0
70.0,448.0,0.14,1.24,9.89,4.14,-2.4,1.93,18.23,70.0-80.0
70.0,975.0,-1.26,3.2,9.74,3.2,5.43,-0.63,18.22,70.0-80.0
70.0,1286.0,-0.88,2.19,9.12,4.63,-0.17,1.26,18.24,70.0-80.0
70.0,1255.0,0.21,0.09,8.55,0.42,0.01,-1.63,18.22,70.0-80.0
70.0,1280.0,0.82,-0.62,10.64,-0.22,-5.02,2.33,18.21,70.0-80.0
70.0,1363.0,-0.01,1.48,8.89,1.2,1.62,-1.59,18.23,70.0-80.0
70.0,1200.0,0.94,1.03,9.81,3.49,-2.37,2.01,18.22,70.0-80.0
70.0,1722.0,0.44,-1.0,9.73,0.16,-1.31,-1.27,18.21,70.0-80.0
70.0,1473.0,0.05,-1.44,11.86,-2.92,-4.55,2.3,18.22,70.0-80.0
70.0,1762.0,0.24,1.03,8.37,2.27,0.11,-1.43,18.2,70.0-80.0
70.0,1647.0,0.24,-1.18,11.1,-1.03,-6.88,2.53,18.22,70.0-80.0
70.0,1328.0,0.09,-4.51,10.74,-4.35,-2.98,-1.09,18.23,70.0-80.0
70.0,1535.0,0.69,-0.16,10.58,-3.44,0.85,1.43,18.22,70.0-80.0
70.0,1219.0,0.67,-2.62,10.42,-1.81,-2.69,-1.09,18.21,70.0-80.0
70.0,1395.0,0.12,-1.13,11.82,-3.0,-2.69,2.16,18.19,70.0-80.0
70.0,1183.0,-1.27,-3.18,10.49,-3.68,-0.78,-1.85,18.21,70.0-80.0
70.0,638.0,0.23,1.83,8.99,1.11,3.66,0.3,18.22,70.0-80.0
70.0,256.0,-0.52,-2.88,10.14,-2.42,-1.42,-1.64,18.21,70.0-80.0
70.0,203.0,1.1,0.95,9.73,-0.88,1.75,1.37,18.2,70.0-80.0
70.0,0.0,0.12,-1.98,10.1,-2.13,0.34,-1.26,18.22,70.0-80.0
70.0,94.0,-1.53,1.61,10.16,0.89,3.69,-0.21,18.19,70.0-80.0
70.0,18.0,-0.98,-3.59,10.58,-3.9,-1.08,-1.23,18.21,70.0-80.0
70.0,374.0,0.51,1.17,8.96,-0.43,3.13,0.77,18.2,70.0-80.0
70.0,658.0,-0.18,0.67,8.35,1.03,2.12,-0.51,18.19,70.0-80.0
70.0,358.0,-0.8,2.88,9.42,2.71,4.58,-1.58,18.2,70.0-80.0
70.0,661.0,-0.14,-1.74,9.93,-2.34,1.27,-1.98,18.19,70.0-80.0
70.0,656.0,-1.95,2.69,9.88,2.48,5.19,-0.79,18.21,70.0-80.0
70.0,576.0,-0.78,2.45,8.31,4.77,1.74,0.48,18.2,70.0-80.0
70.0,478.0,0.24,2.04,7.75,2.42,1.46,-1.24,18.22,70.0-80.0
70.0,695.0,-0.23,1.13,8.53,1.66,2.24,-0.59,18.21,70.0-80.0
70.0,1283.0,-0.8,2.83,9.57,2.88,4.18,-0.8,18.21,70.0-80.0
70.0,0.0,-0.21,1.36,9.99,4.27,-1.89,2.01,18.2,70.0-80.0
70.0,1675.0,-0.02,0.02,8.66,1.0,-0.18,-0.94,18.21,70.0-80.0
70.0,1486.0,-0.9,1.91,8.07,3.93,1.02,0.51,18.2,70.0-80.0
70.0,1270.0,0.44,1.78,8.42,1.87,1.66,-1.5,18.21,70.0-80.0
70.0,1619.0,1.16,0.05,10.4,1.95,-4.33,1.7,18.2,70.0-80.0
70.0,1369.0,-1.08,2.48,10.09,2.5,3.23,-1.24,18.22,70.0-80.0
70.0,1733.0,-0.5,1.43,9.52,4.28,-0.4,1.26,18.2,70.0-80.0
70.0,1375.0,0.09,0.78,8.37,1.18,-0.44,-1.11,18.22,70.0-80.0
70.0,2083.0,0.82,-0.67,10.66,-0.37,-5.75,2.37,18.23,70.0-80.0
70.0,1567.0,0.07,2.14,8.84,2.19,2.26,-1.03,18.22,70.0-80.0
70.0,1867.0,0.79,0.56,10.58,2.89,-2.75,1.85,18.23,70.0-80.0
70.0,1666.0,-0.26,-0.18,9.36,1.03,-0.23,-0.71,18.22,70.0-80.0
70.0,1808.0,-0.01,-0.56,11.03,-0.69,-4.93,2.69,18.22,70.0-80.0
70.0,2102.0,-0.06,1.84,7.72,2.24,2.33,-1.26,18.21,70.0-80.0
70.0,1646.0,1.3,0.05,10.17,1.47,-4.55,1.85,18.2,70.0-80.0
70.0,2315.0,0.44,-1.5,9.98,-0.71,-0.06,-1.35,18.2,70.0-80.0
70.0,2293.0,-0.02,-0.27,11.36,-1.35,-2.72,2.31,18.21,70.0-80.0
70.0,1776.0,-0.26,0.51,8.65,0.96,1.16,-1.27,18.21,70.0-80.0
70.0,2160.0,0.26,-0.36,10.36,-0.69,-5.17,1.98,18.2,70.0-80.0
70.0,2103.0,0.95,-2.75,10.04,-2.39,-1.22,-1.61,18.2,70.0-80.0
70.0,1773.0,0.67,-0.53,11.48,-2.42,-1.28,1.84,18.18,70.0-80.0
70.0,2170.0,-0.2,-0.52,9.98,0.65,-0.4,-1.2,18.2,70.0-80.0
70.0,2140.0,-0.31,-1.0,10.9,-1.42,-4.5,2.36,18.2,70.0-80.0
70.0,1970.0,0.34,-3.86,10.24,-3.87,-2.24,-1.47,18.2,70.0-80.0
70.0,1968.0,0.85,0.16,10.46,-2.08,0.82,1.61,18.21,70.0-80.0
70.0,1517.0,0.8,-2.06,10.37,-1.0,-1.53,-0.8,18.21,70.0-80.0
70.0,1732.0,0.13,-0.97,11.53,-2.14,-2.87,2.68,18.22,70.0-80.0
70.0,1434.0,-1.18,-3.52,10.63,-4.26,-1.34,-1.59,18.22,70.0-80.0
70.0,1100.0,0.39,1.41,9.0,-0.66,2.44,0.57,18.22,70.0-80.0
70.0,1095.0,0.97,-3.13,10.19,-3.19,-1.88,-1.75,18.21,70.0-80.0
70.0,1050.0,0.53,-0.27,11.48,-2.36,-0.28,1.66,18.21,70.0-80.0
70.0,688.0,-1.28,-2.81,10.53,-3.45,0.56,-1.91,18.21,70.0-80.0
70.0,1159.0,-0.17,1.67,8.79,0.51,3.63,-0.19,18.2,70.0-80.0
70.0,409.0,-0.39,-3.57,10.04,-3.85,-1.34,-1.63,18.21,70.0-80.0
70.0,731.0,0.86,0.92,10.1,-1.15,1.88,1.26,18.2,70.0-80.0
70.0,763.0,-0.46,-1.02,9.49,-0.68,2.32,-1.34,18.2,70.0-80.0
70.0,1122.0,-1.26,1.96,9.88,2.05,4.49,-0.51,18.21,70.0-80.0
70.0,2047.0,-1.59,-2.43,10.36,-2.71,-0.32,-1.64,18.21,70.0-80.0
70.0,1082.0,0.02,2.25,8.92,0.94,2.47,0.66,18.22,70.0-80.0
70.0,880.0,0.3,0.45,8.71,1.38,1.97,-0.86,18.22,70.0-80.0
70.0,2339.0,0.55,0.02,12.04,-1.01,-4.91,2.45,17.86,70.0-80.0
70.0,220.0,-1.61,1.02,7.91,1.47,2.12,0.51,17.86,70.0-80.0
70.0,0.0,0.28,-2.45,8.63,-2.43,1.49,-3.0,17.85,70.0-80.0
70.0,898.0,-0.7,-0.88,8.27,1.12,8.8,-1.98,17.87,70.0-80.0
70.0,1958.0,-1.05,-3.3,8.81,-2.98,2.4,-4.25,17.85,70.0-80.0
70.0,2139.0,1.38,1.99,11.02,2.28,-7.75,3.03,17.85,70.0-80.0
70.0,1250.0,0.67,1.74,10.65,1.66,-3.08,0.71,17.85,70.0-80.0
70.0,27.0,-1.12,1.86,10.3,3.89,-2.87,2.39,17.84,70.0-80.0
70.0,0.0,-1.0,1.02,7.94,1.64,3.36,1.37,17.86,70.0-80.0
70.0,381.0,-0.72,-2.38,9.84,-2.42,0.52,-1.05,17.86,70.0-80.0
70.0,1817.0,0.22,-0.89,11.1,-2.77,1.85,1.37,17.85,70.0-80.0
70.0,1940.0,-0.76,-1.34,10.5,-0.89,-0.89,-1.34,17.86,70.0-80.0
70.0,1495.0,0.56,-0.52,11.74,-2.07,-2.27,1.08,17.83,70.0-80.0
70.0,1712.0,-0.47,0.76,8.77,0.93,1.6,-1.34,17.81,70.0-80.0
70.0,1649.0,0.9,1.25,9.95,2.85,-4.91,1.09,17.84,70.0-80.0
70.0,267.0,-0.32,1.03,9.09,0.94,2.49,-1.01,17.86,70.0-80.0
70.0,805.0,0.4,1.03,9.3,2.59,-3.91,2.1,17.84,70.0-80.0
70.0,874.0,-0.2,1.08,9.8,0.22,1.78,0.33,17.83,70.0-80.0
70.0,459.0,0.56,-1.27,7.89,-0.14,4.12,-0.54,17.85,70.0-80.0
70.0,483.0,-0.64,1.72,9.66,1.09,0.27,0.71,17.84,70.0-80.0
70.0,621.0,0.67,-0.8,8.59,0.85,4.88,-0.6,17.85,70.0-80.0
70.0,157.0,-1.15,0.31,9.82,-0.8,-1.74,0.88,17.84,70.0-80.0
70.0,295.0,-0.46,-2.38,11.31,-2.8,1.57,-2.37,17.85,70.0-80.0
70.0,704.0,-1.05,0.44,9.5,0.13,3.34,-0.57,17.84,70.0-80.0
70.0,191.0,-0.46,-1.32,9.31,-2.58,1.25,-1.85,17.85,70.0-80.0
70.0,1535.0,1.81,-0.99,11.96,-1.44,-2.12,1.72,17.85,70.0-80.0
70.0,1335.0,-0.83,-2.51,9.96,-2.66,-2.78,-0.83,17.84,70.0-80.0
70.0,1383.0,0.85,-0.86,11.27,-3.68,-3.17,1.91,17.84,70.0-80.0
70.0,1518.0,-0.19,-3.17,11.67,-3.03,-0.23,-1.11,17.85,70.0-80.0
70.0,1453.0,-0.98,0.8,10.19,1.17,-2.95,2.83,17.85,70.0-80.0
70.0,1904.0,0.54,-1.38,9.7,-0.59,-4.17,-1.06,17.83,70.0-80.0
70.0,1444.0,1.38,-0.18,12.09,-0.68,-3.3,2.16,17.86,70.0-80.0
70.0,1791.0,-1.39,-2.86,10.2,-2.13,-1.25,-1.58,17.87,70.0-80.0
70.0,1324.0,-0.13,1.31,9.29,2.66,-5.07,2.2,17.86,70.0-80.0
70.0,1755.0,1.08,-0.65,9.8,-0.01,-0.6,-1.12,17.85,70.0-80.0
70.0,1535.0,0.06,0.28,11.19,0.64,-2.78,2.88,17.85,70.0-80.0
70.0,1915.0,-0.86,-2.48,9.74,-2.48,-1.76,-0.74,17.84,70.0-80.0
70.0,1287.0,0.08,1.57,9.15,2.33,-3.6,2.56,17.84,70.0-80.0
70.0,1344.0,1.37,-0.02,10.26,0.89,-1.24,-0.89,17.83,70.0-80.0
70.0,1648.0,-0.82,0.63,10.8,1.14,-1.97,2.33,17.84,70.0-80.0
70.0,1643.0,-0.47,-2.52,9.84,-1.73,-4.09,-1.63,17.84,70.0-80.0
70.0,1616.0,0.9,1.72,9.34,3.14,-3.13,1.23,17.82,70.0-80.0
70.0,1578.0,0.79,-0.34,9.74,1.38,-0.17,-1.66,17.84,70.0-80.0
70.0,1616.0,-0.27,0.22,11.34,0.56,-4.09,2.77,17.85,70.0-80.0
70.0,1670.0,-1.0,-3.28,10.14,-3.01,-3.13,-0.76,17.84,70.0-80.0
70.0,1504.0,1.19,1.31,9.6,2.54,-5.19,2.83,17.84,70.0-80.0
70.0,1859.0,0.88,-1.22,10.11,-0.2,-1.18,-0.72,17.85,70.0-80.0
70.0,1339.0,-0.19,-0.29,11.47,-0.54,-3.63,2.97,17.84,70.0-80.0
70.0,1515.0,-1.18,-3.45,10.47,-3.48,-2.47,-1.21,17.86,70.0-80.0
70.0,1280.0,0.37,1.0,9.69,1.89,-4.41,2.11,17.84,70.0-80.0
70.0,1375.0,1.17,-1.57,10.04,-0.3,-2.58,-1.67,17.83,70.0-80.0
70.0,1351.0,0.3,-0.14,11.49,-0.86,-1.62,1.88,17.84,70.0-80.0
70.0,1641.0,-1.38,-3.45,10.79,-3.38,-2.46,-1.59,17.86,70.0-80.0
70.0,911.0,-0.11,1.0,10.2,1.31,-4.55,2.4,17.84,70.0-80.0
70.0,1136.0,0.74,-2.42,10.01,-1.52,-2.98,-1.08,17.84,70.0-80.0
70.0,1147.0,0.81,-0.31,11.48,-2.22,-1.51,2.36,17.83,70.0-80.0
70.0,1134.0,-0.92,-3.5,10.68,-3.9,-0.14,-1.15,17.83,70.0-80.0
70.0,930.0,-0.48,-0.17,11.18,-0.34,-4.56,2.89,17.86,70.0-80.0
70.0,1085.0,-0.19,-3.78,10.53,-3.47,-2.99,-1.26,17.86,70.0-80.0
70.0,397.0,0.98,0.14,10.26,-2.1,0.2,1.05,17.85,70.0-80.0
70.0,505.0,0.29,-1.8,9.93,-2.0,0.92,-1.37,17.84,70.0-80.0
70.0,511.0,0.21,-0.5,11.31,-1.49,-1.56,2.02,17.84,70.0-80.0
70.0,97.0,-1.19,-3.57,10.85,-4.13,-2.32,-1.47,17.82,70.0-80.0
70.0,489.0,0.2,0.97,9.22,-0.8,2.87,0.42,17.86,70.0-80.0
70.0,506.0,0.54,0.14,8.6,0.62,1.46,-0.04,17.83,70.0-80.0
70.0,647.0,0.95,0.4,10.7,-1.64,0.69,2.02,17.83,70.0-80.0
70.0,261.0,-0.61,-2.2,10.08,-2.22,0.72,-1.11,17.84,70.0-80.0
70.0,608.0,-0.86,1.24,9.61,0.31,3.05,-0.68,17.83,70.0-80.0
70.0,1041.0,-0.56,1.04,8.31,2.51,1.33,-0.16,17.82,70.0-80.0
70.0,954.0,0.88,0.69,9.68,-1.39,1.4,0.51,17.82,70.0-80.0
70.0,700.0,0.47,-0.78,8.94,-0.63,2.17,-1.32,17.83,70.0-80.0
70.0,430.0,-1.68,2.48,9.89,2.24,5.1,-1.27,17.86,70.0-80.0
70.0,770.0,-0.79,2.25,8.74,5.12,1.04,1.49,17.84,70.0-80.0
70.0,469.0,-0.89,1.86,8.71,0.47,4.68,0.05,17.85,70.0-80.0
70.0,511.0,0.11,1.58,8.01,3.23,2.98,0.27,17.83,70.0-80.0
70.0,1392.0,-0.09,2.52,8.75,2.47,3.39,-0.83,17.84,70.0-80.0
70.0,898.0,0.27,0.78,10.55,3.09,-3.17,1.98,17.84,70.0-80.0
70.0,1187.0,-1.41,2.39,9.89,2.45,5.22,-0.97,17.83,70.0-80.0
70.0,799.0,-0.69,1.44,8.53,3.92,0.23,0.48,17.85,70.0-80.0
70.0,838.0,0.17,1.21,8.37,1.18,1.04,-1.9,17.83,70.0-80.0
70.0,1186.0,0.88,-0.09,10.46,1.02,-3.63,1.61,17.83,70.0-80.0
70.0,1461.0,-0.49,1.6,9.58,1.08,2.5,-1.55,17.84,70.0-80.0
70.0,917.0,-0.35,0.49,10.7,2.27,-1.63,1.44,17.84,70.0-80.0
70.0,1434.0,-0.88,0.31,8.72,0.51,1.13,-1.23,17.83,70.0-80.0
70.0,1347.0,0.49,0.55,10.49,0.28,-4.11,2.49,17.83,70.0-80.0
70.0,1178.0,0.16,0.95,8.72,0.59,2.61,-1.53,17.82,70.0-80.0
70.0,957.0,0.19,1.08,10.24,2.34,-2.01,1.63,17.84,70.0-80.0
70.0,1107.0,-0.07,0.22,9.12,1.9,1.94,-1.67,17.84,70.0-80.0
70.0,1486.0,-0.41,0.74,10.82,0.77,-3.71,2.34,17.85,70.0-80.0
70.0,1166.0,-0.38,2.0,8.2,2.85,2.73,-1.72,17.84,70.0-80.0
70.0,1205.0,0.39,1.53,9.83,2.53,-4.67,2.43,17.82,70.0-80.0
70.0,1362.0,0.57,-1.97,10.09,-0.34,-2.38,-1.08,17.84,70.0-80.0
70.0,1215.0,0.42,-0.17,11.42,-1.67,-2.09,2.48,17.83,70.0-80.0
70.0,1456.0,-0.4,0.31,9.1,1.78,0.17,-1.27,17.82,70.0-80.0
70.0,974.0,-0.13,0.24,11.08,0.15,-4.5,2.63,17.81,70.0-80.0
70.0,1234.0,-0.4,-3.89,10.79,-3.51,-3.33,-1.63,17.84,70.0-80.0
70.0,906.0,0.99,0.13,10.28,-2.25,0.99,0.63,17.83,70.0-80.0
70.0,615.0,0.06,-2.43,10.11,-1.21,-2.2,-1.81,17.82,70.0-80.0
70.0,572.0,0.76,-0.33,11.48,-1.76,-1.71,1.82,17.82,70.0-80.0
70.0,430.0,-1.08,-3.29,10.83,-3.76,-1.62,-1.32,17.84,70.0-80.0
70.0,625.0,-0.41,0.93,9.42,-0.48,3.86,0.1,17.84,70.0-80.0
70.0,101.0,-0.42,-3.89,10.57,-3.59,-2.73,-0.85,17.86,70.0-80.0
70.0,610.0,0.95,0.03,10.4,-2.29,0.87,1.59,17.84,70.0-80.0
70.0,686.0,0.27,-1.77,9.52,-2.45,-0.14,-0.66,17.84,70.0-80.0
70.0,779.0,-1.57,1.79,10.09,0.91,5.54,-1.37,17.87,70.0-80.0
70.0,786.0,-0.45,-3.86,11.03,-4.63,-2.12,-1.7,17.86,70.0-80.0
70.0,1035.0,-0.77,1.02,9.48,-0.69,3.59,-0.91,17.85,70.0-80.0
70.0,823.0,-0.6,1.19,8.32,2.25,3.08,-0.77,17.84,70.0-80.0
70.0,737.0,-0.07,2.71,8.23,2.39,4.06,-2.05,17.83,70.0-80.0
70.0,832.0,0.41,-1.31,9.51,-1.65,0.53,-1.01,17.83,70.0-80.0
70.0,954.0,-1.65,2.07,9.75,1.4,5.78,-0.88,17.83,70.0-80.0
70.0,1174.0,-0.72,2.23,9.33,4.56,0.81,1.63,17.84,70.0-80.0
70.0,858.0,-0.56,2.02,7.73,3.12,2.3,-1.05,17.85,70.0-80.0
70.0,818.0,-0.57,1.38,8.44,2.62,2.21,0.36,17.84,70.0-80.0
70.0,856.0,-0.31,3.11,8.23,3.29,4.56,-1.55,17.86,70.0-80.0
70.0,706.0,0.53,1.69,9.93,4.56,-2.3,1.69,17.83,70.0-80.0
70.0,1249.0,-0.09,-1.06,9.54,0.35,-0.5,-1.95,17.84,70.0-80.0
70.0,1399.0,-0.97,1.84,9.3,4.22,0.17,0.94,17.85,70.0-80.0
70.0,795.0,-0.2,0.81,8.46,0.97,0.58,-1.73,17.84,70.0-80.0
70.0,1193.0,0.73,0.62,10.22,1.06,-3.89,2.33,17.83,70.0-80.0
70.0,898.0,0.59,-2.05,10.25,-1.21,-3.24,-0.82,17.84,70.0-80.0
70.0,1475.0,0.5,1.73,10.04,3.9,-0.61,2.08,17.84,70.0-80.0
70.0,1347.0,-0.22,0.11,8.95,1.61,-0.21,-1.26,17.85,70.0-80.0
70.0,1493.0,-0.07,-0.24,11.42,-0.59,-4.96,2.45,17.82,70.0-80.0
70.0,1110.0,-0.6,-4.15,10.79,-3.51,-3.45,-1.56,17.85,70.0-80.0
70.0,1201.0,0.79,0.81,10.21,2.05,-5.11,2.11,17.83,70.0-80.0
70.0,1329.0,0.13,-2.34,10.39,-0.74,-2.9,-1.35,17.84,70.0-80.0
70.0,944.0,0.44,0.07,10.98,-1.3,-1.21,2.33,17.84,70.0-80.0
70.0,1154.0,-0.11,-3.37,11.04,-3.77,-2.18,-0.92,17.83,70.0-80.0
70.0,801.0,-0.3,-0.1,11.19,-0.63,-3.39,2.75,17.85,70.0-80.0
70.0,489.0,-0.58,-4.25,10.61,-3.99,-3.2,-1.06,17.83,70.0-80.0
70.0,549.0,0.9,-0.45,10.65,-3.04,0.26,0.98,17.84,70.0-80.0
70.0,641.0,0.47,-1.66,9.52,-2.74,0.35,-1.24,17.86,70.0-80.0
70.0,908.0,0.96,-0.98,11.22,-3.16,-1.92,1.78,17.83,70.0-80.0
70.0,583.0,0.44,-4.0,11.02,-4.96,-2.17,-1.88,17.84,70.0-80.0
70.0,497.0,-1.92,1.38,9.72,0.07,4.1,-0.66,17.85,70.0-80.0
70.0,738.0,-0.62,1.8,8.67,3.4,2.44,0.68,17.85,70.0-80.0
70.0,1305.0,0.69,0.38,9.5,-1.65,2.72,0.97,17.86,70.0-80.0
70.0,772.0,-0.03,-0.27,9.04,-0.42,0.64,-0.02,17.84,70.0-80.0
70.0,912.0,-0.68,2.17,9.16,1.66,5.49,-1.29,17.87,70.0-80.0
70.0,814.0,-0.42,2.34,10.01,4.6,-0.82,1.91,17.86,70.0-80.0
70.0,1054.0,-1.0,0.98,10.05,-0.13,5.02,-1.14,17.88,70.0-80.0
70.0,738.0,-1.38,1.95,8.61,3.57,3.07,0.28,17.85,70.0-80.0
70.0,546.0,0.03,2.27,7.77,2.71,4.81,-2.39,17.84,70.0-80.0
70.0,688.0,0.45,1.48,9.85,2.95,-4.36,2.01,17.86,70.0-80.0
70.0,719.0,-0.2,2.08,8.96,1.6,4.88,-1.82,17.84,70.0-80.0
70.0,724.0,0.05,2.07,9.77,4.36,-0.4,1.76,17.84,70.0-80.0
70.0,1041.0,-0.17,0.56,8.61,2.05,1.17,-1.5,17.85,70.0-80.0
70.0,1300.0,-0.1,0.31,10.84,0.56,-4.0,2.6,17.83,70.0-80.0
70.0,1447.0,-0.45,2.31,7.77,2.79,3.33,-1.75,17.84,70.0-80.0
70.0,1413.0,0.73,1.43,9.97,2.91,-4.2,2.36,17.84,70.0-80.0
70.0,1409.0,0.4,-1.54,9.6,0.18,-2.21,-1.21,17.84,70.0-80.0
70.0,1153.0,0.71,0.11,11.42,-0.95,-2.32,2.25,17.86,70.0-80.0
70.0,1296.0,-0.24,0.81,8.52,2.65,2.38,-2.01,17.87,70.0-80.0
70.0,1054.0,-0.13,0.99,10.7,0.97,-4.44,2.28,17.83,70.0-80.0
70.0,1081.0,-0.59,-3.25,10.62,-2.16,-3.71,-1.05,17.84,70.0-80.0
70.0,675.0,0.38,1.79,9.69,2.83,-3.49,2.01,17.85,70.0-80.0
70.0,385.0,0.42,-1.47,9.56,0.47,-1.74,-1.44,17.85,70.0-80.0
70.0,179.0,0.55,0.2,11.14,-0.97,-2.15,2.17,17.87,70.0-80.0
70.0,654.0,-0.49,-4.1,11.19,-4.29,-2.85,-0.94,17.86,70.0-80.0
70.0,902.0,-0.15,0.98,10.73,1.17,-4.32,2.54,17.85,70.0-80.0
70.0,1218.0,-0.46,-3.91,10.99,-2.86,-4.9,-0.71,17.84,70.0-80.0
70.0,715.0,0.98,-0.57,10.43,-2.54,0.21,1.29,17.87,70.0-80.0
70.0,311.0,0.61,-1.7,9.46,-2.4,-0.95,-0.34,17.86,70.0-80.0
70.0,1237.0,0.88,-0.41,11.11,-1.84,-1.68,1.98,17.85,70.0-80.0
70.0,401.0,-0.15,-3.4,10.5,-4.2,-2.73,-1.03,17.87,70.0-80.0
70.0,1008.0,-0.55,0.93,10.4,-0.16,4.17,-0.8,17.86,70.0-80.0
70.0,1347.0,-1.47,1.94,8.89,3.28,2.24,0.74,17.86,70.0-80.0
70.0,1085.0,0.13,0.71,9.64,-0.95,2.72,0.27,17.87,70.0-80.0
70.0,863.0,-0.07,0.34,8.82,0.65,0.88,-0.05,17.85,70.0-80.0
70.0,954.0,-0.31,2.08,8.83,1.43,3.97,-1.82,17.85,70.0-80.0
70.0,1040.0,0.4,1.63,9.84,3.84,-0.6,1.85,17.87,70.0-80.0
70.0,1009.0,-1.53,1.71,9.76,0.93,5.2,-1.09,17.85,70.0-80.0
70.0,1006.0,-0.81,2.39,9.33,4.8,1.71,1.41,17.84,70.0-80.0
70.0,842.0,-0.18,1.83,7.66,2.94,2.5,-1.69,17.86,70.0-80.0
70.0,1223.0,0.43,0.77,10.48,1.73,-4.97,2.49,17.86,70.0-80.0
70.0,1332.0,0.2,2.5,8.04,2.51,4.47,-2.07,17.85,70.0-80.0
70.0,1535.0,0.35,1.78,9.53,3.9,-2.47,2.01,17.86,70.0-80.0
70.0,1623.0,0.28,-1.59,9.72,0.06,-1.42,-1.53,17.85,70.0-80.0
70.0,990.0,0.64,-0.98,11.48,-2.43,-3.16,2.13,17.84,70.0-80.0
70.0,1238.0,-0.63,0.4,8.39,1.64,-0.11,-1.84,17.88,70.0-80.0
70.0,1507.0,0.69,-0.77,11.27,-0.81,-4.47,2.31,17.86,70.0-80.0
70.0,1065.0,-0.41,-4.27,10.91,-3.94,-4.18,-1.15,17.86,70.0-80.0
70.0,273.0,0.7,0.15,10.24,-2.52,1.13,1.23,17.87,70.0-80.0
70.0,734.0,0.69,-2.87,10.1,-1.44,-2.43,-1.08,17.85,70.0-80.0
70.0,423.0,0.64,-0.77,11.33,-3.06,-1.54,2.1,17.86,70.0-80.0
70.0,409.0,-0.49,-3.26,10.68,-3.74,-1.34,-1.4,17.87,70.0-80.0
70.0,165.0,-1.18,1.76,9.49,1.03,4.27,-0.27,17.87,70.0-80.0
70.0,806.0,-0.59,-4.0,10.63,-4.0,-2.38,-1.52,17.88,70.0-80.0
70.0,896.0,0.73,0.65,9.67,-1.3,1.53,0.8,17.86,70.0-80.0
70.0,989.0,0.16,-1.01,9.23,-1.46,0.21,-0.94,17.83,70.0-80.0
70.0,606.0,-1.35,1.64,9.9,1.06,4.26,-1.56,17.84,70.0-80.0
70.0,822.0,0.18,-3.23,10.66,-3.79,-2.18,-1.11,17.85,70.0-80.0
70.0,1170.0,-1.22,0.58,9.99,-0.51,3.04,-0.27,17.86,70.0-80.0
70.0,1947.0,-0.62,0.64,9.35,1.49,0.72,0.88,17.86,70.0-80.0
70.0,539.0,-0.51,2.19,8.13,1.76,4.15,-1.79,17.84,70.0-80.0
70.0,527.0,0.38,-1.88,9.14,-2.69,-0.52,-0.3,17.86,70.0-80.0
70.0,1164.0,-1.41,1.57,9.81,0.54,5.43,-1.81,17.87,70.0-80.0
70.0,997.0,-0.53,3.29,9.54,5.78,2.06,1.61,17.86,70.0-80.0
70.0,1207.0,-0.41,2.17,7.92,3.58,1.86,-1.79,17.88,70.0-80.0
70.0,1267.0,-1.16,2.18,9.06,3.64,3.49,0.51,17.87,70.0-80.0
70.0,1573.0,-0.7,2.97,7.76,3.08,4.18,-2.27,17.85,70.0-80.0
70.0,1295.0,0.68,2.09,9.43,3.9,-3.42,1.78,17.85,70.0-80.0
70.0,816.0,0.26,-1.07,9.37,1.0,-0.99,-1.52,17.86,70.0-80.0
70.0,1335.0,-0.36,2.56,9.77,4.74,0.52,1.53,17.86,70.0-80.0
70.0,1535.0,-0.53,0.98,8.62,2.53,1.34,-1.81,17.85,70.0-80.0
70.0,1181.0,-0.13,0.82,10.5,1.41,-3.13,2.36,17.87,70.0-80.0
70.0,1062.0,-0.46,-3.34,10.27,-1.91,-3.16,-0.8,17.84,70.0-80.0
70.0,1319.0,0.53,2.07,9.74,3.46,-2.73,2.25,17.84,70.0-80.0
70.0,761.0,0.19,-1.21,9.42,1.18,-1.34,-1.29,17.88,70.0-80.0
70.0,208.0,0.65,-0.11,10.86,-1.12,-2.15,2.05,17.87,70.0-80.0
70.0,269.0,0.34,-4.61,11.11,-5.44,-3.62,-1.15,17.86,70.0-80.0
70.0,945.0,0.41,0.68,10.82,0.82,-4.18,2.24,17.85,70.0-80.0
70.0,448.0,-0.62,-4.56,11.19,-4.05,-3.89,-1.24,17.84,70.0-80.0
70.0,381.0,0.53,-0.67,10.01,-3.03,0.55,0.54,17.85,70.0-80.0
70.0,560.0,0.22,-1.57,8.96,-2.05,0.99,-0.3,17.86,70.0-80.0
70.0,1158.0,0.63,-0.62,10.88,-2.66,-1.94,1.93,17.84,70.0-80.0
70.0,1264.0,0.8,-3.77,10.53,-4.81,-2.2,-0.54,17.86,70.0-80.0
70.0,1381.0,-0.87,0.02,10.66,-1.76,3.48,-0.92,17.85,70.0-80.0
70.0,979.0,-1.42,1.84,9.22,3.17,3.23,1.12,17.85,70.0-80.0
70.0,1381.0,-0.1,-0.66,10.13,-2.75,1.22,0.07,17.87,70.0-80.0
70.0,952.0,-0.72,-0.03,9.42,0.27,1.72,0.22,17.85,70.0-80.0
70.0,874.0,-0.37,2.37,8.15,1.43,4.97,-2.22,17.85,70.0-80.0
70.0,897.0,0.25,2.74,9.52,4.34,-0.2,1.7,17.85,70.0-80.0
70.0,839.0,-0.66,1.09,9.63,-0.4,5.22,-1.98,17.85,70.0-80.0
70.0,1387.0,-0.84,2.56,9.71,4.11,1.6,1.37,17.86,70.0-80.0
70.0,1137.0,-0.3,1.4,8.26,2.68,2.38,-2.24,17.83,70.0-80.0
70.0,1238.0,-0.06,1.41,10.24,1.99,-2.59,2.17,17.83,70.0-80.0
70.0,1178.0,-0.54,1.99,8.09,2.04,3.66,-2.27,17.86,70.0-80.0
70.0,1183.0,-0.11,2.26,9.82,3.73,-1.83,2.22,17.84,70.0-80.0
70.0,809.0,-0.11,-1.69,9.57,0.94,-2.27,-1.03,17.85,70.0-80.0
70.0,848.0,0.98,-0.03,10.68,-1.55,-1.79,2.11,17.87,70.0-80.0
70.0,249.0,-0.16,-0.21,9.1,2.07,-0.52,-1.5,17.85,70.0-80.0
70.0,401.0,0.56,0.46,10.64,-0.11,-1.83,2.24,17.83,70.0-80.0
70.0,564.0,0.15,-4.06,11.54,-4.16,-5.2,-0.62,17.85,70.0-80.0
70.0,1239.0,-0.76,0.08,10.15,-1.68,3.02,-0.02,17.86,70.0-80.0
70.0,1060.0,-0.56,-4.13,11.13,-3.07,-4.38,-1.06,17.85,70.0-80.0
70.0,1163.0,0.24,-0.51,10.16,-2.55,0.88,0.6,17.86,70.0-80.0
70.0,1267.0,-0.0,-1.23,9.71,-1.78,-0.35,-0.02,17.85,70.0-80.0
70.0,1467.0,-0.71,1.91,8.34,0.74,5.22,-1.99,17.86,70.0-80.0
70.0,1010.0,1.11,-3.1,10.07,-4.08,-3.07,-0.47,17.85,70.0-80.0
70.0,1405.0,-1.31,0.88,9.58,-0.52,5.57,-1.78,17.85,70.0-80.0
70.0,963.0,-0.36,3.13,9.51,5.06,2.93,1.7,17.83,70.0-80.0
70.0,1050.0,-0.53,2.09,7.86,3.6,1.91,-2.08,17.84,70.0-80.0
70.0,909.0,-0.82,1.95,9.48,3.2,3.68,1.05,17.83,70.0-80.0
70.0,1371.0,-0.43,2.82,7.78,3.09,3.97,-2.53,17.84,70.0-80.0
70.0,1238.0,-0.39,2.66,9.59,4.3,-1.14,2.16,17.86,70.0-80.0
70.0,1038.0,-0.07,-2.92,10.17,-0.43,-4.06,-1.08,17.87,70.0-80.0
70.0,912.0,0.18,3.3,9.23,5.24,-0.28,2.13,17.84,70.0-80.0
70.0,719.0,-0.25,-1.56,9.45,1.05,-3.1,-1.41,17.84,70.0-80.0
70.0,611.0,1.16,-1.31,11.01,-3.03,-1.79,1.69,17.87,70.0-80.0
70.0,464.0,1.02,-4.77,10.94,-5.88,-4.76,-1.06,17.84,70.0-80.0
70.0,983.0,1.01,-0.54,11.07,-1.01,-3.08,2.3,17.84,70.0-80.0
70.0,1436.0,0.01,-4.95,11.73,-5.12,-5.62,-0.62,17.87,70.0-80.0
70.0,1373.0,-0.7,-0.02,9.93,-1.82,3.28,0.08,17.88,70.0-80.0
70.0,896.0,-0.66,0.53,9.44,0.91,2.21,0.62,17.84,70.0-80.0
70.0,1329.0,0.35,-0.65,9.81,-3.12,1.24,0.72,17.85,70.0-80.0
70.0,899.0,0.25,-1.44,9.88,-2.02,-0.55,-0.1,17.81,70.0-80.0
70.0,1295.0,-0.51,1.96,8.72,0.96,4.78,-1.88,17.82,70.0-80.0
70.0,897.0,-0.11,3.32,9.43,5.03,0.99,1.87,17.84,70.0-80.0
70.0,507.0,-1.01,0.99,9.95,-0.42,5.45,-1.56,17.85,70.0-80.0
70.0,1034.0,-1.21,3.32,9.3,5.11,3.26,1.53,17.85,70.0-80.0
70.0,889.0,-0.13,1.73,7.88,3.41,1.85,-2.13,17.83,70.0-80.0
70.0,1431.0,-0.13,0.83,10.55,1.55,-3.72,2.51,17.84,70.0-80.0
70.0,1523.0,-0.18,2.84,8.0,3.17,2.73,-2.04,17.87,70.0-80.0
70.0,857.0,0.1,1.94,9.57,3.86,-1.59,2.59,17.84,70.0-80.0
70.0,1412.0,0.21,-3.25,10.26,-1.13,-4.58,-1.0,17.85,70.0-80.0
70.0,1191.0,0.81,-1.26,10.88,-3.8,-1.39,1.46,17.85,70.0-80.0
70.0,651.0,0.38,-1.26,9.23,1.11,-2.73,-1.59,17.84,70.0-80.0
70.0,748.0,1.12,-1.13,11.57,-2.61,-3.16,1.81,17.84,70.0-80.0
70.0,862.0,-0.25,-4.65,11.29,-5.51,-4.21,-1.49,17.86,70.0-80.0
70.0,404.0,-1.3,0.7,9.63,-0.94,5.39,-0.76,17.85,70.0-80.0
70.0,1103.0,-0.41,-4.9,11.8,-4.75,-5.51,-1.21,17.86,70.0-80.0
