Speed,Voice,Acceleration X,Acceleration Y,Acceleration Z,Gyro X,Gyro Y,Gyro Z,Temperature,Speed_Range
70.0,1493.0,0.72,-1.59,9.82,-2.13,1.3,-2.48,17.71,70.0-80.0
70.0,2928.0,0.91,-0.57,12.28,-1.94,-3.82,1.64,17.71,70.0-80.0
70.0,2735.0,-0.12,2.25,11.6,0.96,-4.59,0.43,17.72,70.0-80.0
70.0,906.0,0.78,2.3,10.82,2.57,-7.07,3.4,17.69,70.0-80.0
70.0,262.0,0.09,-0.94,8.41,0.6,5.22,-1.63,17.68,70.0-80.0
70.0,1462.0,-1.72,-4.29,9.55,-3.7,5.74,-5.0,17.7,70.0-80.0
70.0,2443.0,-0.73,-0.52,8.89,-0.3,3.33,-1.08,17.71,70.0-80.0
70.0,2928.0,1.36,-0.84,10.83,-1.49,-1.13,-2.11,17.72,70.0-80.0
70.0,1930.0,-0.31,2.35,10.1,4.42,-1.79,2.97,17.7,70.0-80.0
70.0,985.0,-0.83,0.88,8.46,1.11,1.49,1.01,17.7,70.0-80.0
70.0,511.0,-1.38,0.37,8.67,1.89,1.56,0.53,17.72,70.0-80.0
70.0,727.0,-1.13,1.37,7.54,2.36,7.16,0.34,17.69,70.0-80.0
70.0,1872.0,-0.7,-1.81,10.63,-1.82,-1.56,-1.09,17.69,70.0-80.0
70.0,1904.0,0.48,-0.83,11.76,-2.25,-0.47,0.71,17.67,70.0-80.0
70.0,2426.0,-1.42,-1.56,10.72,-1.38,-2.03,-2.37,17.68,70.0-80.0
70.0,2221.0,0.65,-0.02,11.55,-1.29,-1.91,0.71,17.69,70.0-80.0
70.0,2061.0,-0.79,0.91,8.22,0.79,2.53,-1.55,17.69,70.0-80.0
70.0,1446.0,1.43,0.65,10.09,2.09,-4.97,2.1,17.69,70.0-80.0
70.0,1728.0,-0.58,0.04,8.62,-0.75,1.97,-0.88,17.7,70.0-80.0
70.0,1658.0,1.45,-0.32,10.4,0.88,-4.03,2.4,17.71,70.0-80.0
70.0,1646.0,-1.39,1.61,9.26,1.32,2.06,0.71,17.68,70.0-80.0
70.0,1711.0,-0.03,-0.37,10.38,0.68,-0.31,0.33,17.69,70.0-80.0
70.0,1535.0,-1.31,1.84,9.0,2.63,1.75,0.18,17.69,70.0-80.0
70.0,1275.0,-0.32,0.37,10.67,1.34,-2.17,0.43,17.69,70.0-80.0
70.0,1104.0,1.1,1.38,10.28,2.7,3.54,-0.34,17.68,70.0-80.0
70.0,1327.0,-1.98,0.46,6.93,0.36,3.46,-1.09,17.7,70.0-80.0
70.0,526.0,1.82,1.83,10.45,2.74,1.97,-0.13,17.69,70.0-80.0
70.0,483.0,-1.8,0.48,7.47,1.69,4.33,0.05,17.71,70.0-80.0
70.0,798.0,-0.74,0.09,9.5,-2.71,-1.74,0.89,17.72,70.0-80.0
70.0,698.0,1.07,-2.16,11.17,-1.84,0.93,-1.4,17.69,70.0-80.0
70.0,867.0,-1.65,0.62,9.25,-0.68,4.18,-0.36,17.69,70.0-80.0
70.0,801.0,0.56,-0.68,8.86,-0.36,-1.51,-1.06,17.69,70.0-80.0
70.0,789.0,1.34,-0.12,11.51,-1.59,-1.42,1.21,17.67,70.0-80.0
70.0,781.0,-1.71,-2.62,10.39,-1.61,0.55,-1.91,17.68,70.0-80.0
70.0,1043.0,0.02,0.55,9.65,-1.38,0.47,0.34,17.68,70.0-80.0
70.0,791.0,0.23,-1.35,9.09,-1.15,1.68,-1.21,17.69,70.0-80.0
70.0,1166.0,1.13,-0.34,12.0,-0.83,-3.45,2.72,17.7,70.0-80.0
70.0,1077.0,-2.07,-2.83,10.0,-2.98,0.5,-1.05,17.7,70.0-80.0
70.0,1238.0,0.92,0.25,10.23,-2.0,-2.0,1.47,17.69,70.0-80.0
70.0,1291.0,0.08,-1.86,10.19,-2.03,2.69,-1.61,17.69,70.0-80.0
70.0,1469.0,-0.24,-0.35,11.5,-0.65,-2.38,2.13,17.72,70.0-80.0
70.0,1454.0,-1.12,-2.63,9.95,-2.57,-1.94,-2.02,17.67,70.0-80.0
70.0,1177.0,0.9,0.3,10.36,-1.7,-0.46,0.54,17.69,70.0-80.0
70.0,1090.0,-0.06,-1.77,10.4,-1.18,0.99,-1.76,17.69,70.0-80.0
70.0,1535.0,-0.64,-0.18,11.38,-0.46,-1.63,2.2,17.7,70.0-80.0
70.0,1436.0,-0.91,-2.52,9.42,-2.31,-1.22,-1.18,17.69,70.0-80.0
70.0,1600.0,1.32,0.44,10.67,-1.58,-0.38,1.87,17.7,70.0-80.0
70.0,1296.0,-0.71,-2.05,10.13,-1.71,2.07,-1.0,17.69,70.0-80.0
70.0,1680.0,-0.53,-0.29,11.51,-0.88,-3.48,2.97,17.69,70.0-80.0
70.0,1637.0,-0.84,-2.75,9.82,-2.98,-0.93,-1.59,17.69,70.0-80.0
70.0,1470.0,1.35,0.57,10.52,-1.3,-0.96,1.08,17.7,70.0-80.0
70.0,1179.0,-0.36,-1.72,10.24,-1.47,1.72,-2.04,17.69,70.0-80.0
70.0,1287.0,-0.68,-0.26,11.2,-0.65,-2.14,1.78,17.7,70.0-80.0
70.0,1377.0,-0.83,-2.95,10.12,-2.74,-1.89,-1.93,17.69,70.0-80.0
70.0,1509.0,0.98,0.36,10.0,-1.76,0.4,1.06,17.68,70.0-80.0
70.0,908.0,0.07,-1.66,10.05,-1.49,0.96,-0.83,17.72,70.0-80.0
70.0,1008.0,-0.09,-0.39,11.63,-1.27,-2.27,2.94,17.7,70.0-80.0
70.0,688.0,-1.4,-3.36,10.25,-3.29,-1.42,-1.09,17.68,70.0-80.0
70.0,1085.0,1.05,0.38,9.96,-1.67,0.03,1.05,17.69,70.0-80.0
70.0,0.0,0.4,-1.28,9.38,-1.17,1.54,-1.34,17.72,70.0-80.0
70.0,1161.0,0.45,-0.44,11.73,-1.47,-2.37,1.98,17.7,70.0-80.0
70.0,335.0,-1.57,-3.48,10.65,-3.36,-0.38,-2.1,17.69,70.0-80.0
70.0,858.0,0.3,0.4,9.71,-1.47,0.55,0.05,17.69,70.0-80.0
70.0,301.0,0.48,-0.62,8.83,-0.74,1.59,-0.95,17.69,70.0-80.0
70.0,986.0,1.18,-0.13,11.09,-1.68,-0.99,2.24,17.7,70.0-80.0
70.0,464.0,-0.95,-3.26,10.97,-3.38,-0.55,-0.98,17.7,70.0-80.0
70.0,729.0,-0.51,0.12,9.76,-1.84,1.62,0.07,17.71,70.0-80.0
70.0,445.0,0.07,0.11,8.18,0.42,1.34,-0.42,17.7,70.0-80.0
70.0,694.0,1.79,-0.49,10.62,-2.45,-0.11,1.41,17.7,70.0-80.0
70.0,630.0,-0.25,-2.49,10.26,-2.66,0.35,-1.66,17.71,70.0-80.0
70.0,1131.0,-1.39,0.91,10.16,0.04,3.78,-1.15,17.7,70.0-80.0
70.0,1069.0,-0.72,0.66,8.2,1.98,1.45,-0.31,17.69,70.0-80.0
70.0,1168.0,1.13,0.86,9.83,-1.0,0.56,0.86,17.69,70.0-80.0
70.0,1398.0,0.01,-0.87,9.17,-0.88,1.25,-0.65,17.7,70.0-80.0
70.0,1023.0,-0.91,1.23,10.14,0.64,3.74,-0.82,17.69,70.0-80.0
70.0,1127.0,-1.38,0.62,9.09,2.51,0.85,0.85,17.71,70.0-80.0
70.0,958.0,-0.1,0.67,9.68,-0.68,1.74,0.3,17.7,70.0-80.0
70.0,1558.0,0.6,-0.34,8.57,0.04,1.04,-0.5,17.7,70.0-80.0
70.0,1423.0,-0.69,1.5,9.55,0.71,3.84,-1.72,17.68,70.0-80.0
70.0,1104.0,-0.36,0.86,10.23,3.03,-0.11,0.97,17.69,70.0-80.0
70.0,1482.0,-1.45,0.84,10.29,-0.1,2.61,-0.89,17.69,70.0-80.0
70.0,1276.0,-0.75,0.88,8.73,2.44,1.07,0.4,17.69,70.0-80.0
70.0,1153.0,0.26,1.73,7.84,1.63,4.2,-1.44,17.67,70.0-80.0
70.0,1518.0,0.69,0.81,10.14,1.75,-3.08,2.07,17.68,70.0-80.0
70.0,1224.0,-0.63,1.39,9.92,0.44,4.12,-1.12,17.7,70.0-80.0
70.0,1643.0,-0.9,1.37,9.64,3.46,0.47,1.21,17.68,70.0-80.0
70.0,1413.0,0.14,1.2,8.32,2.22,2.59,-1.47,17.69,70.0-80.0
70.0,1152.0,0.1,0.04,10.44,0.38,-5.74,2.16,17.7,70.0-80.0
70.0,1641.0,0.63,2.57,7.94,3.0,3.75,-1.84,17.68,70.0-80.0
70.0,1674.0,0.75,0.73,10.3,2.48,-4.44,1.67,17.69,70.0-80.0
70.0,1661.0,-0.08,-1.45,9.91,-0.14,-0.66,-1.38,17.7,70.0-80.0
70.0,1717.0,-0.12,-0.51,11.45,-1.9,-3.85,2.4,17.71,70.0-80.0
70.0,1614.0,0.0,0.61,8.39,1.28,1.53,-1.37,17.69,70.0-80.0
70.0,1533.0,0.49,-0.24,10.57,-0.42,-5.26,2.42,17.69,70.0-80.0
70.0,1653.0,0.14,-2.66,10.28,-1.96,-2.0,-1.0,17.69,70.0-80.0
70.0,1226.0,0.91,0.22,11.07,-1.44,-0.98,2.31,17.68,70.0-80.0
70.0,1453.0,-0.26,-0.77,9.46,0.76,-0.06,-1.2,17.68,70.0-80.0
70.0,1311.0,-0.13,-0.25,11.17,-0.92,-3.27,2.36,17.67,70.0-80.0
70.0,1109.0,-0.47,-4.21,10.96,-3.97,-2.99,-1.73,17.69,70.0-80.0
70.0,863.0,0.52,0.63,9.66,-1.55,1.92,0.37,17.68,70.0-80.0
70.0,711.0,0.04,-3.65,10.46,-3.07,-2.84,-1.52,17.69,70.0-80.0
70.0,382.0,1.1,-0.36,10.77,-2.4,0.78,1.55,17.72,70.0-80.0
70.0,7.0,-0.7,-2.24,10.16,-3.01,-0.58,-1.44,17.71,70.0-80.0
70.0,511.0,-1.7,2.05,9.9,1.41,5.72,-0.63,17.69,70.0-80.0
70.0,0.0,-0.93,-3.85,10.68,-4.45,-1.95,-1.46,17.71,70.0-80.0
70.0,725.0,0.42,1.52,9.36,-0.02,3.1,0.36,17.71,70.0-80.0
70.0,458.0,-0.4,0.59,8.37,1.67,1.74,-0.42,17.69,70.0-80.0
70.0,979.0,-0.12,1.56,9.56,1.4,3.45,-1.72,17.69,70.0-80.0
70.0,673.0,-0.5,-1.6,9.65,-1.41,0.47,-1.53,17.7,70.0-80.0
70.0,1014.0,-1.21,0.94,10.32,0.38,3.13,-1.06,17.69,70.0-80.0
70.0,1507.0,-0.6,0.43,9.13,2.18,0.92,0.86,17.7,70.0-80.0
70.0,1651.0,-0.04,1.36,8.03,0.91,2.53,-1.56,17.71,70.0-80.0
70.0,1197.0,0.48,-0.43,8.91,0.09,0.5,0.14,17.7,70.0-80.0
70.0,1098.0,-0.62,1.33,9.01,0.48,3.72,-1.49,17.68,70.0-80.0
70.0,1310.0,0.33,1.07,10.36,2.66,-1.97,1.67,17.7,70.0-80.0
70.0,1396.0,-0.4,0.16,8.87,1.46,1.85,-1.81,17.69,70.0-80.0
70.0,1102.0,-1.03,1.02,9.34,2.88,0.78,0.76,17.68,70.0-80.0
70.0,1261.0,-0.16,0.99,7.9,1.35,3.69,-2.39,17.69,70.0-80.0
70.0,1182.0,0.6,0.41,10.21,0.86,-3.59,1.85,17.7,70.0-80.0
70.0,1558.0,-0.04,-1.97,9.57,-0.57,-0.95,-1.3,17.7,70.0-80.0
70.0,1075.0,0.27,0.5,10.21,1.7,-2.3,2.01,17.7,70.0-80.0
70.0,1415.0,0.12,-0.4,8.95,0.85,1.8,-1.21,17.7,70.0-80.0
70.0,1251.0,0.37,0.88,10.83,0.25,-2.53,2.69,17.71,70.0-80.0
70.0,1050.0,-1.38,-3.21,10.86,-2.55,-2.67,-1.21,17.71,70.0-80.0
70.0,1570.0,0.3,1.01,10.35,1.09,-3.89,2.01,17.69,70.0-80.0
70.0,511.0,-0.18,-2.86,10.13,-1.44,-2.69,-1.69,17.69,70.0-80.0
70.0,773.0,0.73,0.18,10.76,-1.53,-0.7,1.32,17.71,70.0-80.0
70.0,726.0,0.38,-2.49,9.87,-3.39,-1.54,-1.35,17.69,70.0-80.0
70.0,921.0,0.8,-0.5,11.16,-1.78,-2.73,2.14,17.69,70.0-80.0
70.0,207.0,-0.3,-4.46,11.19,-5.36,-2.58,-1.34,17.69,70.0-80.0
70.0,641.0,-0.74,0.67,9.82,-1.01,3.57,-0.07,17.69,70.0-80.0
70.0,1317.0,-0.86,1.51,8.44,2.76,3.11,0.62,17.68,70.0-80.0
70.0,1282.0,0.43,0.4,9.88,-1.96,1.39,1.23,17.69,70.0-80.0
70.0,560.0,-0.17,-0.33,9.06,-0.23,1.27,-0.6,17.7,70.0-80.0
70.0,581.0,-1.01,2.27,9.26,1.89,5.1,-1.79,17.7,70.0-80.0
70.0,1068.0,0.04,1.9,9.73,4.6,-0.2,1.26,17.69,70.0-80.0
70.0,1033.0,-1.67,2.05,10.13,1.49,5.16,-1.08,17.67,70.0-80.0
70.0,655.0,-0.75,2.07,8.88,4.36,1.25,0.95,17.69,70.0-80.0
70.0,1296.0,0.04,1.51,8.13,1.57,1.69,-1.7,17.68,70.0-80.0
70.0,1185.0,0.6,0.54,10.26,1.57,-4.0,2.31,17.72,70.0-80.0
70.0,1213.0,-0.35,1.82,8.88,1.18,3.72,-1.73,17.72,70.0-80.0
70.0,1187.0,0.28,1.48,9.86,3.67,-1.56,1.85,17.71,70.0-80.0
70.0,1535.0,-0.27,-0.03,8.96,1.64,0.78,-1.38,17.71,70.0-80.0
70.0,1367.0,0.51,-0.09,11.12,-0.57,-4.53,2.45,17.68,70.0-80.0
70.0,1821.0,-0.25,1.6,8.05,2.65,2.62,-2.02,17.71,70.0-80.0
70.0,929.0,0.32,0.53,10.3,1.49,-4.0,2.05,17.7,70.0-80.0
70.0,1488.0,0.33,-3.12,9.97,-1.93,-2.52,-1.26,17.7,70.0-80.0
70.0,1045.0,0.81,-0.44,11.05,-2.57,-1.3,2.16,17.7,70.0-80.0
70.0,1407.0,0.42,-0.63,9.0,1.58,-0.29,-0.98,17.69,70.0-80.0
70.0,1200.0,0.53,-0.55,11.68,-1.88,-4.68,2.88,17.69,70.0-80.0
70.0,541.0,-0.62,-5.01,11.25,-5.41,-2.38,-1.32,17.71,70.0-80.0
70.0,268.0,0.28,-0.16,9.84,-2.26,1.24,0.16,17.7,70.0-80.0
70.0,365.0,-0.02,-3.89,10.6,-2.54,-3.51,-1.27,17.71,70.0-80.0
70.0,896.0,0.58,-0.3,10.5,-2.61,-0.85,1.4,17.71,70.0-80.0
70.0,153.0,0.94,-2.55,9.83,-3.41,-0.46,-1.18,17.71,70.0-80.0
70.0,816.0,-1.78,1.27,10.09,-0.14,4.87,-1.59,17.68,70.0-80.0
70.0,1129.0,0.1,-4.61,11.22,-5.25,-2.84,-1.23,17.69,70.0-80.0
70.0,1117.0,-0.92,0.18,10.13,-1.59,3.04,-0.27,17.69,70.0-80.0
70.0,1163.0,-0.86,1.26,9.01,2.07,2.03,0.83,17.7,70.0-80.0
70.0,1152.0,0.77,-0.21,10.22,-2.16,1.33,1.2,17.71,70.0-80.0
70.0,1174.0,-0.41,-0.95,8.93,-1.33,0.92,-0.16,17.71,70.0-80.0
70.0,1021.0,-0.5,1.45,9.14,0.62,4.64,-2.02,17.7,70.0-80.0
70.0,1294.0,0.04,1.85,9.98,3.99,-0.38,1.58,17.7,70.0-80.0
70.0,1107.0,-0.95,0.81,10.19,-0.2,4.1,-1.15,17.72,70.0-80.0
70.0,1155.0,-0.97,2.0,9.75,3.47,1.62,1.08,17.71,70.0-80.0
70.0,1360.0,-0.53,2.23,7.38,3.18,4.79,-2.34,17.69,70.0-80.0
70.0,1013.0,0.48,1.35,10.38,2.01,-4.96,2.37,17.68,70.0-80.0
70.0,1479.0,-0.1,2.56,7.87,2.39,5.61,-2.22,17.7,70.0-80.0
70.0,1335.0,0.6,2.43,9.55,4.07,-3.08,2.2,17.69,70.0-80.0
70.0,1013.0,0.1,-1.06,9.34,1.29,-0.85,-1.29,17.71,70.0-80.0
70.0,1294.0,0.84,-0.58,11.09,-2.08,-2.88,2.24,17.71,70.0-80.0
70.0,762.0,-0.56,0.37,8.53,2.41,0.5,-1.85,17.71,70.0-80.0
70.0,742.0,0.61,0.05,11.04,0.01,-3.82,2.34,17.7,70.0-80.0
70.0,676.0,-0.51,-3.72,11.08,-2.97,-4.2,-0.83,17.71,70.0-80.0
70.0,435.0,-0.01,0.75,9.65,-0.75,2.78,1.17,17.7,70.0-80.0
70.0,728.0,-0.33,-2.36,9.96,-0.88,-2.5,-1.05,17.69,70.0-80.0
70.0,838.0,0.59,0.59,10.5,-0.98,-0.63,2.01,17.69,70.0-80.0
70.0,1303.0,0.41,-2.61,10.13,-3.44,-2.3,-0.6,17.71,70.0-80.0
70.0,1246.0,-0.85,0.79,10.29,-0.68,3.89,-1.18,17.7,70.0-80.0
70.0,1033.0,-0.22,-4.31,11.29,-4.81,-3.11,-1.35,17.7,70.0-80.0
70.0,1109.0,-0.86,0.15,10.32,-1.7,2.78,-0.86,17.69,70.0-80.0
70.0,1040.0,-1.02,0.9,8.59,1.9,2.87,-0.11,17.68,70.0-80.0
70.0,973.0,0.1,2.05,8.11,1.78,3.97,-2.45,17.7,70.0-80.0
70.0,1055.0,0.07,-1.01,9.28,-1.18,0.55,-0.24,17.69,70.0-80.0
70.0,1242.0,-0.62,1.33,9.02,0.51,4.96,-1.53,17.72,70.0-80.0
70.0,1249.0,0.08,1.89,9.92,4.07,-0.18,2.2,17.68,70.0-80.0
70.0,1330.0,-0.53,0.73,8.43,2.5,1.74,-1.26,17.71,70.0-80.0
70.0,1078.0,-0.88,1.79,9.43,3.58,1.59,1.58,17.69,70.0-80.0
70.0,1569.0,-0.09,1.43,8.32,2.07,3.26,-2.17,17.71,70.0-80.0
70.0,1457.0,-0.39,1.27,10.15,1.58,-3.42,1.75,17.68,70.0-80.0
70.0,1319.0,0.32,-2.39,9.69,-0.77,-1.71,-1.91,17.71,70.0-80.0
70.0,1123.0,0.03,1.59,9.91,2.68,-2.27,1.15,17.7,70.0-80.0
70.0,1291.0,0.15,-0.75,9.0,1.15,0.46,-2.08,17.7,70.0-80.0
70.0,560.0,0.88,0.28,10.85,-0.91,-2.32,2.02,17.71,70.0-80.0
70.0,386.0,-0.26,-4.39,11.16,-4.71,-3.49,-0.83,17.69,70.0-80.0
70.0,860.0,0.25,0.7,10.7,0.65,-3.65,2.68,17.7,70.0-80.0
70.0,976.0,-0.3,-4.2,11.07,-3.01,-3.8,-0.62,17.7,70.0-80.0
70.0,973.0,0.15,0.01,9.99,-1.88,0.53,1.47,17.71,70.0-80.0
70.0,1199.0,-0.12,-0.81,9.2,-0.74,0.84,-0.05,17.71,70.0-80.0
70.0,1200.0,0.81,-0.07,10.61,-1.94,-0.93,1.75,17.71,70.0-80.0
70.0,1260.0,0.12,-2.25,10.02,-3.09,-1.54,-0.98,17.69,70.0-80.0
70.0,1310.0,-1.25,1.64,10.17,0.6,4.97,-1.53,17.68,70.0-80.0
70.0,735.0,-0.63,2.54,9.48,4.42,1.4,0.94,17.71,70.0-80.0
70.0,841.0,-1.27,0.78,10.17,-0.8,4.18,-0.83,17.69,70.0-80.0
70.0,798.0,-1.03,1.43,8.84,2.56,2.14,0.62,17.69,70.0-80.0
70.0,1285.0,0.1,2.12,8.17,1.78,3.28,-1.98,17.7,70.0-80.0
70.0,1359.0,0.1,1.53,9.78,3.23,-2.91,2.39,17.7,70.0-80.0
70.0,1127.0,-0.26,1.97,8.75,1.35,4.49,-1.81,17.68,70.0-80.0
70.0,1432.0,0.24,2.65,9.33,5.26,-0.2,1.96,17.69,70.0-80.0
70.0,1733.0,0.01,-0.09,8.95,2.48,-0.5,-1.5,17.7,70.0-80.0
70.0,1210.0,0.23,-0.6,11.07,-1.24,-4.14,2.42,17.72,70.0-80.0
70.0,1146.0,0.05,1.96,7.94,3.37,0.96,-2.07,17.69,70.0-80.0
70.0,1392.0,0.01,-0.01,11.17,0.65,-5.3,2.37,17.71,70.0-80.0
70.0,1164.0,-0.12,-5.15,10.91,-4.72,-4.35,-1.21,17.69,70.0-80.0
70.0,752.0,1.17,-0.97,10.71,-4.52,-0.93,1.06,17.7,70.0-80.0
70.0,757.0,0.19,-3.9,10.08,-2.39,-2.64,-1.17,17.69,70.0-80.0
70.0,727.0,1.54,-1.8,11.51,-4.66,-2.3,1.84,17.7,70.0-80.0
70.0,673.0,-0.53,-3.49,10.6,-4.71,-1.45,-1.32,17.7,70.0-80.0
70.0,761.0,-1.66,1.95,10.06,1.37,6.36,-0.82,17.69,70.0-80.0
70.0,1156.0,-0.87,-4.66,11.25,-5.03,-3.71,-1.23,17.68,70.0-80.0
70.0,885.0,-0.07,0.94,9.64,-0.49,3.66,0.28,17.69,70.0-80.0
70.0,1047.0,-1.07,1.39,8.57,2.15,2.75,-0.05,17.71,70.0-80.0
70.0,1100.0,-0.3,3.18,7.94,3.17,4.9,-1.82,17.72,70.0-80.0
70.0,880.0,-0.02,-0.92,9.54,-1.68,0.99,-0.88,17.7,70.0-80.0
70.0,1298.0,-1.34,2.47,9.35,1.8,5.78,-1.38,17.69,70.0-80.0
70.0,1059.0,-0.24,2.54,9.82,4.63,-0.09,1.69,17.7,70.0-80.0
70.0,1167.0,-0.29,0.97,8.14,2.33,2.14,-2.07,17.71,70.0-80.0
70.0,1419.0,-1.31,2.2,8.73,3.87,2.75,0.39,17.71,70.0-80.0
70.0,1199.0,0.21,2.11,8.0,2.76,3.34,-2.48,17.68,70.0-80.0
70.0,1147.0,-0.08,0.78,10.1,2.04,-4.87,1.99,17.69,70.0-80.0
70.0,1609.0,0.55,-2.88,9.85,-0.78,-1.8,-1.32,17.68,70.0-80.0
70.0,1435.0,0.21,1.63,9.91,3.75,-2.59,2.22,17.69,70.0-80.0
70.0,1126.0,-0.25,-1.19,9.51,0.48,-0.03,-1.09,17.7,70.0-80.0
70.0,1214.0,0.37,-0.14,10.83,-1.46,-2.18,2.66,17.69,70.0-80.0
70.0,913.0,-0.13,-3.51,10.94,-3.35,-3.11,-0.89,17.7,70.0-80.0
70.0,491.0,0.17,0.71,10.75,0.59,-2.79,2.46,17.69,70.0-80.0
70.0,65.0,-0.03,-2.34,9.95,-1.07,-1.88,-1.37,17.69,70.0-80.0
70.0,848.0,0.53,0.99,9.96,-0.66,0.35,1.05,17.7,70.0-80.0
70.0,847.0,0.67,-2.47,9.74,-3.01,-1.27,-1.35,17.71,70.0-80.0
70.0,729.0,0.64,0.88,10.41,-0.39,-0.9,1.3,17.69,70.0-80.0
70.0,1270.0,0.48,-3.69,10.96,-3.91,-3.31,-1.38,17.7,70.0-80.0
70.0,1520.0,-1.05,0.25,10.01,-1.26,3.51,-0.39,17.67,70.0-80.0
70.0,848.0,-0.65,1.15,9.06,2.44,2.52,1.43,17.68,70.0-80.0
70.0,1402.0,0.37,-0.43,9.79,-2.08,2.24,1.06,17.68,70.0-80.0
70.0,1141.0,-1.0,-0.13,8.89,0.07,1.49,0.74,17.69,70.0-80.0
70.0,1050.0,0.11,2.3,8.12,2.15,6.42,-1.44,17.69,70.0-80.0
70.0,943.0,0.61,2.52,9.7,4.65,-2.27,2.17,17.7,70.0-80.0
70.0,1078.0,-1.18,2.35,9.43,1.93,7.09,-1.85,17.69,70.0-80.0
70.0,1280.0,0.07,2.32,9.57,5.05,0.72,1.14,17.69,70.0-80.0
70.0,1410.0,-0.75,0.84,8.35,1.49,-0.75,-2.4,17.68,70.0-80.0
70.0,1211.0,0.44,-0.43,11.1,-0.3,-3.71,1.91,17.71,70.0-80.0
70.0,1855.0,-0.23,1.82,7.88,1.8,1.94,-2.11,17.71,70.0-80.0
70.0,1535.0,0.5,0.45,10.59,1.15,-5.01,2.4,17.71,70.0-80.0
70.0,1649.0,-0.1,-2.8,9.91,-1.35,-1.77,-0.91,17.69,70.0-80.0
70.0,1566.0,1.01,-0.32,11.17,-2.22,-1.86,2.51,17.69,70.0-80.0
70.0,1238.0,-0.19,-1.08,9.26,0.53,-0.35,-1.12,17.69,70.0-80.0
70.0,764.0,0.7,-0.84,11.54,-1.81,-3.66,2.49,17.69,70.0-80.0
70.0,752.0,-0.72,-4.4,10.89,-4.6,-2.03,-1.73,17.69,70.0-80.0
70.0,950.0,-0.01,1.05,9.92,-0.45,2.41,0.05,17.69,70.0-80.0
70.0,528.0,-0.2,-3.99,10.32,-3.09,-2.01,-1.41,17.69,70.0-80.0
70.0,896.0,1.0,0.17,10.25,-2.68,-0.37,1.35,17.7,70.0-80.0
70.0,1438.0,0.38,-1.71,9.5,-2.66,1.56,-1.43,17.71,70.0-80.0
70.0,767.0,-2.23,2.29,9.87,1.26,5.17,-1.38,17.7,70.0-80.0
70.0,918.0,0.16,-4.2,11.13,-5.27,-2.3,-1.41,17.69,70.0-80.0
70.0,1196.0,-1.52,1.16,9.63,-0.16,4.42,-0.34,17.71,70.0-80.0
70.0,902.0,-0.34,1.59,8.66,3.26,2.36,0.39,17.7,70.0-80.0
70.0,1525.0,-0.13,2.09,8.2,2.19,3.59,-2.08,17.69,70.0-80.0
70.0,670.0,-0.16,-0.33,8.56,-0.31,2.01,-0.8,17.68,70.0-80.0
70.0,998.0,-0.83,2.19,9.46,1.92,4.32,-1.85,17.7,70.0-80.0
70.0,1141.0,-0.34,2.17,9.8,4.89,0.29,1.52,17.71,70.0-80.0
70.0,1127.0,-0.32,1.0,8.08,2.27,1.6,-1.7,17.69,70.0-80.0
70.0,1461.0,-0.85,1.84,9.0,3.4,1.92,0.72,17.69,70.0-80.0
70.0,1435.0,-0.45,2.07,7.89,2.12,3.55,-1.76,17.7,70.0-80.0
70.0,0.0,-1.6,1.15,8.75,1.44,1.39,1.03,17.49,70.0-80.0
70.0,1243.0,0.73,-1.48,8.92,-1.53,-1.86,-1.49,17.47,70.0-80.0
70.0,2145.0,0.73,-1.41,11.22,-2.63,0.4,0.91,17.45,70.0-80.0
70.0,2373.0,-0.54,0.72,10.24,0.54,0.64,-1.91,17.47,70.0-80.0
70.0,2529.0,0.8,0.53,10.37,0.59,-3.85,1.34,17.47,70.0-80.0
70.0,1968.0,0.75,0.93,10.64,-0.04,-2.61,-0.98,17.47,70.0-80.0
70.0,787.0,0.32,-2.46,9.55,-2.36,-0.7,-2.74,17.5,70.0-80.0
70.0,457.0,-1.0,0.42,8.34,1.54,7.31,-0.33,17.49,70.0-80.0
70.0,2020.0,-0.86,-2.27,9.1,-1.65,0.49,-1.35,17.46,70.0-80.0
70.0,2383.0,-0.19,-0.93,9.58,-2.29,5.45,0.83,17.47,70.0-80.0
70.0,2752.0,-0.35,-0.14,10.1,-1.78,-1.43,0.48,17.49,70.0-80.0
70.0,2390.0,1.74,1.29,11.26,2.18,-7.37,3.24,17.45,70.0-80.0
70.0,1968.0,-0.58,0.57,9.47,0.03,0.32,-0.53,17.48,70.0-80.0
70.0,1535.0,1.29,1.07,10.53,2.56,-6.18,1.37,17.47,70.0-80.0
70.0,1195.0,-1.22,1.4,9.14,1.49,5.71,-1.49,17.47,70.0-80.0
70.0,711.0,0.15,-0.9,8.09,0.79,2.29,-2.07,17.47,70.0-80.0
70.0,1296.0,-0.89,1.83,9.95,1.44,2.01,-0.13,17.49,70.0-80.0
70.0,749.0,0.19,-0.61,8.39,0.76,3.2,-0.59,17.45,70.0-80.0
70.0,1137.0,0.05,0.17,10.32,-1.47,-3.74,2.16,17.46,70.0-80.0
70.0,626.0,-0.55,-2.6,10.9,-2.69,2.61,-1.29,17.48,70.0-80.0
70.0,1667.0,-0.48,0.32,9.6,-0.54,-1.27,1.47,17.47,70.0-80.0
70.0,2158.0,-0.11,-2.12,10.55,-2.48,1.14,-1.75,17.47,70.0-80.0
70.0,2238.0,0.89,-0.84,11.02,0.57,-1.43,1.56,17.47,70.0-80.0
70.0,2193.0,-0.8,-0.95,9.26,-1.76,-2.55,-1.87,17.47,70.0-80.0
70.0,1931.0,1.34,-0.59,11.63,-1.01,-1.63,0.95,17.47,70.0-80.0
70.0,2318.0,-1.38,-1.8,9.62,-1.44,-0.12,-1.66,17.47,70.0-80.0
70.0,2000.0,-0.47,1.02,8.8,0.71,-3.28,1.99,17.49,70.0-80.0
70.0,2144.0,1.72,-0.57,10.61,0.19,-0.95,-0.54,17.48,70.0-80.0
70.0,2127.0,-1.19,0.24,10.06,0.18,-1.28,2.56,17.45,70.0-80.0
70.0,2298.0,0.56,-1.7,9.32,-1.74,-2.64,-1.11,17.47,70.0-80.0
70.0,2399.0,1.39,0.36,10.91,1.63,-3.05,1.4,17.47,70.0-80.0
70.0,2291.0,-1.02,-0.26,9.38,0.54,2.87,-1.5,17.47,70.0-80.0
70.0,2118.0,0.09,0.15,9.88,0.59,-5.55,1.72,17.45,70.0-80.0
70.0,1921.0,1.24,-1.33,9.9,-1.13,1.01,-1.98,17.47,70.0-80.0
70.0,2162.0,-0.17,0.01,10.61,1.93,-1.24,0.76,17.48,70.0-80.0
70.0,2019.0,-0.87,0.54,9.01,0.8,1.14,-0.74,17.48,70.0-80.0
70.0,2269.0,0.42,0.29,9.43,0.28,-3.95,2.36,17.46,70.0-80.0
70.0,1943.0,1.31,-1.19,10.6,-1.07,0.01,-0.89,17.47,70.0-80.0
70.0,2215.0,-0.86,0.21,10.35,1.64,0.4,1.4,17.47,70.0-80.0
70.0,2000.0,-0.72,0.88,8.75,1.02,-0.17,-0.68,17.47,70.0-80.0
70.0,2058.0,0.94,0.45,9.98,0.76,-4.09,1.73,17.48,70.0-80.0
70.0,1885.0,0.68,-1.33,10.36,-0.59,-0.26,-1.95,17.45,70.0-80.0
70.0,2224.0,-0.44,0.4,10.34,2.68,-0.89,0.45,17.47,70.0-80.0
70.0,1902.0,-0.86,0.56,8.39,1.09,1.88,-1.66,17.45,70.0-80.0
70.0,1860.0,0.93,0.11,10.12,0.45,-5.22,2.08,17.45,70.0-80.0
70.0,1584.0,0.62,-1.84,10.02,-1.64,0.56,-1.24,17.45,70.0-80.0
70.0,2617.0,-0.28,0.4,10.62,2.16,-2.17,1.96,17.47,70.0-80.0
70.0,2416.0,-0.69,0.29,9.03,0.79,1.1,-0.5,17.47,70.0-80.0
70.0,2120.0,0.4,0.1,10.12,0.01,-4.44,2.62,17.44,70.0-80.0
70.0,2133.0,0.83,-2.24,9.98,-1.88,-1.11,-1.75,17.48,70.0-80.0
70.0,2384.0,0.53,0.39,10.52,1.87,-2.38,1.15,17.48,70.0-80.0
70.0,1966.0,-0.53,-0.49,9.57,0.59,0.37,-1.75,17.45,70.0-80.0
70.0,2151.0,-0.3,-0.28,10.94,-0.81,-4.09,1.96,17.46,70.0-80.0
70.0,2174.0,0.13,-3.09,9.85,-3.12,-1.19,-1.85,17.48,70.0-80.0
70.0,2383.0,1.17,-0.2,10.64,0.38,-5.4,2.05,17.47,70.0-80.0
70.0,2604.0,-0.09,-2.1,10.17,-1.64,0.5,-1.12,17.45,70.0-80.0
70.0,1561.0,-0.21,-0.3,11.23,-1.49,-2.23,2.78,17.47,70.0-80.0
70.0,2348.0,-0.92,-2.92,9.79,-3.04,-0.06,-1.55,17.46,70.0-80.0
70.0,1775.0,0.36,-0.5,10.55,-0.83,-5.07,2.45,17.48,70.0-80.0
70.0,2206.0,0.61,-2.66,10.15,-2.2,-0.52,-1.75,17.47,70.0-80.0
70.0,1651.0,0.28,0.71,10.71,-0.62,0.67,1.4,17.46,70.0-80.0
70.0,795.0,-1.09,-1.81,9.99,-1.24,0.52,-2.02,17.45,70.0-80.0
70.0,1535.0,-0.56,-0.01,10.69,-1.03,-1.86,1.93,17.46,70.0-80.0
70.0,1046.0,-0.19,-2.65,9.98,-2.48,-0.92,-1.91,17.46,70.0-80.0
70.0,958.0,0.82,1.51,9.74,-0.13,1.56,1.26,17.47,70.0-80.0
70.0,525.0,-0.36,-0.65,9.48,-0.08,1.02,-0.74,17.49,70.0-80.0
70.0,1058.0,0.16,0.2,10.92,-1.2,-0.38,2.24,17.47,70.0-80.0
70.0,757.0,-1.27,-2.51,10.05,-2.46,0.26,-1.76,17.47,70.0-80.0
70.0,896.0,-0.37,2.04,9.18,1.37,2.67,-0.07,17.48,70.0-80.0
70.0,845.0,-0.13,1.17,8.26,2.94,1.98,-0.56,17.45,70.0-80.0
70.0,569.0,0.76,1.32,9.91,-0.31,1.69,0.83,17.47,70.0-80.0
70.0,842.0,-0.77,-0.61,9.54,0.19,1.88,-1.59,17.47,70.0-80.0
70.0,1245.0,-1.81,2.15,9.88,2.25,3.17,-0.42,17.46,70.0-80.0
70.0,989.0,-0.07,0.88,8.69,3.11,-0.63,1.14,17.46,70.0-80.0
70.0,1719.0,0.21,2.05,9.08,0.82,2.53,0.82,17.45,70.0-80.0
70.0,1496.0,0.16,0.34,8.72,1.41,1.36,-0.36,17.46,70.0-80.0
70.0,817.0,-0.99,1.9,9.89,1.9,2.98,-0.98,17.45,70.0-80.0
70.0,1323.0,-0.6,0.77,9.86,2.95,-1.69,1.08,17.46,70.0-80.0
70.0,1637.0,-0.91,1.81,9.48,1.49,3.25,-0.66,17.47,70.0-80.0
70.0,1506.0,-0.38,1.25,8.17,2.89,0.84,-0.07,17.47,70.0-80.0
70.0,1584.0,0.29,1.88,8.98,1.92,2.33,-1.5,17.49,70.0-80.0
70.0,1515.0,0.44,-0.02,10.72,1.75,-3.59,1.87,17.47,70.0-80.0
70.0,2189.0,-1.67,2.34,10.14,2.56,3.46,-0.6,17.48,70.0-80.0
70.0,1999.0,-0.55,1.29,9.2,3.75,-1.1,1.59,17.46,70.0-80.0
70.0,1740.0,0.49,1.01,8.19,1.37,0.47,-0.66,17.49,70.0-80.0
70.0,1809.0,1.22,-0.85,11.07,-0.39,-6.1,2.4,17.47,70.0-80.0
70.0,2306.0,-0.36,2.47,9.53,2.99,2.99,-0.95,17.45,70.0-80.0
70.0,1967.0,-0.05,0.46,10.47,2.82,-3.68,1.58,17.46,70.0-80.0
70.0,2084.0,-0.22,-0.62,9.28,0.04,-0.47,-1.18,17.46,70.0-80.0
70.0,2559.0,0.48,-1.18,10.94,-1.84,-5.52,2.16,17.45,70.0-80.0
70.0,2139.0,0.71,1.73,8.53,1.96,0.75,-0.97,17.48,70.0-80.0
70.0,2459.0,0.97,-0.51,10.98,0.74,-5.28,2.22,17.47,70.0-80.0
70.0,2302.0,-0.27,-2.12,10.27,-1.73,-0.76,-0.94,17.48,70.0-80.0
70.0,2481.0,-0.25,-1.1,11.28,-2.51,-3.42,2.56,17.47,70.0-80.0
70.0,2182.0,0.32,0.28,8.56,0.56,-0.26,-0.66,17.47,70.0-80.0
70.0,1998.0,1.05,-1.02,11.04,-0.88,-6.15,2.25,17.49,70.0-80.0
70.0,2240.0,0.62,-2.89,10.55,-2.77,-0.32,-1.58,17.46,70.0-80.0
70.0,2061.0,-0.56,-0.23,11.29,-1.81,-0.63,1.73,17.47,70.0-80.0
70.0,1995.0,-0.38,-0.89,9.41,-0.4,-0.18,-1.26,17.48,70.0-80.0
70.0,2304.0,0.35,-0.97,10.71,-1.84,-5.11,2.3,17.46,70.0-80.0
70.0,2064.0,0.76,-3.28,10.26,-3.85,-0.46,-1.81,17.46,70.0-80.0
70.0,2307.0,0.18,0.39,10.85,-1.64,1.56,1.56,17.44,70.0-80.0
70.0,2239.0,-0.4,-1.95,10.34,-1.78,-0.55,-0.97,17.47,70.0-80.0
70.0,1644.0,-0.22,-1.12,11.2,-2.45,-3.3,2.4,17.47,70.0-80.0
70.0,2224.0,-0.3,-2.92,9.77,-3.55,-0.26,-2.05,17.48,70.0-80.0
70.0,2176.0,0.9,1.64,9.83,0.16,2.56,0.8,17.46,70.0-80.0
70.0,1427.0,0.44,-2.64,10.51,-2.49,0.58,-1.75,17.47,70.0-80.0
70.0,2154.0,-0.5,-0.3,11.03,-1.56,-0.41,1.73,17.48,70.0-80.0
70.0,1888.0,-1.21,-2.31,9.55,-2.45,0.84,-2.19,17.47,70.0-80.0
70.0,1136.0,0.66,2.11,8.97,0.73,2.24,0.59,17.47,70.0-80.0
70.0,1392.0,0.98,-2.82,10.23,-3.13,-0.43,-1.66,17.47,70.0-80.0
70.0,66.0,-0.17,0.35,10.98,-1.41,0.84,1.56,17.47,70.0-80.0
70.0,627.0,-1.68,-1.76,9.71,-1.47,1.77,-2.22,17.47,70.0-80.0
70.0,779.0,-0.26,2.3,8.67,1.61,2.65,-0.08,17.47,70.0-80.0
70.0,694.0,0.31,-2.78,10.0,-3.21,-0.58,-2.07,17.47,70.0-80.0
70.0,727.0,0.71,1.04,10.34,-0.33,1.71,1.23,17.47,70.0-80.0
70.0,476.0,-1.27,-1.31,9.81,-0.6,1.74,-1.56,17.47,70.0-80.0
70.0,910.0,-0.89,2.01,9.11,1.8,3.25,-0.13,17.48,70.0-80.0
70.0,0.0,-0.7,-2.78,9.61,-3.16,-0.08,-1.79,17.47,70.0-80.0
70.0,1009.0,1.05,1.26,9.71,-0.49,1.78,1.01,17.47,70.0-80.0
70.0,743.0,-0.6,-0.58,9.42,0.28,2.35,-1.35,17.48,70.0-80.0
70.0,83.0,-1.55,2.14,9.68,2.21,3.75,-0.8,17.46,70.0-80.0
70.0,1031.0,-1.33,-2.59,9.85,-2.75,0.52,-2.3,17.46,70.0-80.0
70.0,111.0,0.67,1.51,9.08,0.01,2.36,-0.07,17.45,70.0-80.0
70.0,998.0,0.11,0.1,8.91,0.96,1.48,-1.2,17.47,70.0-80.0
70.0,873.0,-1.41,2.06,10.18,2.48,3.8,-0.79,17.48,70.0-80.0
70.0,691.0,-1.43,-2.13,10.06,-1.68,0.85,-1.53,17.47,70.0-80.0
70.0,0.0,-0.35,1.74,8.97,0.86,2.91,0.47,17.48,70.0-80.0
70.0,1425.0,0.56,0.34,8.4,1.55,0.98,0.13,17.45,70.0-80.0
70.0,368.0,-0.39,1.5,9.84,1.4,2.53,-0.89,17.45,70.0-80.0
70.0,1072.0,-0.89,-1.34,9.97,-0.63,0.79,-1.3,17.46,70.0-80.0
70.0,1821.0,-1.18,1.68,9.5,1.44,3.31,-0.72,17.46,70.0-80.0
70.0,1760.0,-0.26,1.19,8.3,2.89,0.76,-0.13,17.47,70.0-80.0
70.0,1083.0,0.51,2.0,8.74,2.02,2.21,-1.29,17.47,70.0-80.0
70.0,1010.0,-0.42,-0.48,9.17,0.16,1.78,-1.12,17.44,70.0-80.0
70.0,1519.0,-1.26,1.52,10.14,1.34,4.01,-0.89,17.47,70.0-80.0
70.0,1162.0,-0.94,0.81,8.93,2.88,0.03,1.12,17.45,70.0-80.0
70.0,1242.0,0.3,1.17,8.15,1.41,2.3,-1.12,17.46,70.0-80.0
70.0,1175.0,0.19,0.29,8.32,1.23,1.37,0.16,17.46,70.0-80.0
70.0,1821.0,-0.09,1.75,9.75,1.63,3.42,-1.11,17.46,70.0-80.0
70.0,1430.0,-0.65,0.98,10.34,3.11,-2.14,1.46,17.47,70.0-80.0
70.0,1168.0,-0.39,0.2,9.2,1.0,0.15,-1.52,17.46,70.0-80.0
70.0,1388.0,-0.36,0.78,8.26,2.68,1.19,0.21,17.44,70.0-80.0
70.0,1793.0,0.5,1.21,8.59,0.8,1.74,-1.76,17.45,70.0-80.0
70.0,1662.0,0.46,0.21,10.58,1.15,-3.4,1.59,17.46,70.0-80.0
70.0,1622.0,-0.53,-1.09,10.07,-0.59,-0.32,-1.53,17.46,70.0-80.0
70.0,1863.0,-0.18,0.53,10.17,2.36,-1.36,1.41,17.47,70.0-80.0
70.0,2096.0,-0.46,0.37,8.66,0.62,0.67,-1.17,17.46,70.0-80.0
70.0,1787.0,0.46,0.11,10.63,-0.02,-4.23,2.33,17.46,70.0-80.0
70.0,1761.0,0.17,-1.98,10.02,-1.13,-0.79,-1.46,17.45,70.0-80.0
70.0,1535.0,0.34,-0.08,10.66,1.38,-2.88,1.67,17.48,70.0-80.0
70.0,2115.0,-0.58,-0.83,9.82,-0.01,0.44,-1.49,17.46,70.0-80.0
70.0,1970.0,-0.43,0.4,10.71,-0.39,-1.79,1.96,17.47,70.0-80.0
70.0,1765.0,-0.45,-2.55,9.99,-2.4,-0.87,-2.05,17.47,70.0-80.0
70.0,1679.0,0.44,-0.24,10.87,-0.51,-4.76,2.02,17.47,70.0-80.0
70.0,2047.0,0.18,-2.38,10.09,-2.36,-0.55,-1.88,17.46,70.0-80.0
70.0,1663.0,0.33,0.67,10.73,-0.74,0.56,1.59,17.45,70.0-80.0
70.0,1023.0,-1.23,-1.96,9.83,-1.81,0.29,-1.76,17.47,70.0-80.0
70.0,1195.0,-0.3,-0.5,11.22,-1.73,-2.95,2.19,17.46,70.0-80.0
70.0,863.0,-0.67,-2.88,9.89,-2.75,0.05,-1.88,17.45,70.0-80.0
70.0,429.0,0.78,2.16,9.36,1.03,2.59,1.05,17.48,70.0-80.0
70.0,272.0,-0.63,0.47,8.79,1.9,2.35,-0.71,17.45,70.0-80.0
70.0,434.0,-0.05,1.02,10.55,-0.62,1.1,1.88,17.44,70.0-80.0
70.0,157.0,-1.1,-1.07,9.58,-0.54,1.4,-1.69,17.45,70.0-80.0
70.0,323.0,-0.84,2.91,8.93,2.89,3.89,-0.04,17.47,70.0-80.0
70.0,423.0,-0.11,1.28,8.27,3.43,0.17,0.6,17.45,70.0-80.0
70.0,336.0,0.6,2.65,9.15,1.55,3.36,0.71,17.47,70.0-80.0
70.0,1279.0,-0.74,0.46,8.89,1.7,1.59,-0.94,17.47,70.0-80.0
70.0,1515.0,-0.98,1.85,10.16,2.09,2.76,-0.98,17.46,70.0-80.0
70.0,1021.0,-0.19,0.05,9.41,2.27,-2.18,1.17,17.45,70.0-80.0
70.0,1014.0,-0.8,2.49,9.24,2.6,2.44,-0.16,17.44,70.0-80.0
70.0,1397.0,0.03,0.87,8.7,2.91,-0.44,0.39,17.48,70.0-80.0
70.0,1862.0,0.59,0.85,9.03,0.8,0.96,-0.95,17.45,70.0-80.0
70.0,1849.0,0.67,-0.88,11.25,0.36,-4.82,2.39,17.45,70.0-80.0
70.0,1474.0,-1.09,1.99,10.08,2.44,2.85,-0.42,17.45,70.0-80.0
70.0,1670.0,-0.3,0.53,9.4,2.92,-2.23,1.73,17.44,70.0-80.0
70.0,1410.0,0.33,-0.16,8.8,-0.22,0.69,-1.21,17.45,70.0-80.0
70.0,2220.0,0.75,-0.97,10.87,-1.41,-4.82,1.98,17.45,70.0-80.0
70.0,1484.0,0.32,1.45,9.07,1.14,1.17,-1.55,17.48,70.0-80.0
70.0,2343.0,0.7,-0.56,10.81,0.99,-4.04,1.53,17.47,70.0-80.0
70.0,1123.0,-0.26,-1.93,9.97,-1.85,-0.03,-1.56,17.45,70.0-80.0
70.0,2137.0,-0.01,-0.77,10.88,-2.08,-2.44,2.24,17.46,70.0-80.0
70.0,2304.0,0.04,-0.14,8.53,-0.33,0.41,-1.05,17.48,70.0-80.0
70.0,1728.0,1.28,-1.36,10.99,-1.35,-4.21,2.53,17.47,70.0-80.0
70.0,2323.0,0.4,-2.76,10.11,-2.68,-0.69,-1.12,17.48,70.0-80.0
70.0,1866.0,-0.31,0.53,11.08,-0.95,0.78,2.17,17.46,70.0-80.0
70.0,1787.0,-0.16,-1.28,9.42,-0.66,0.82,-1.18,17.47,70.0-80.0
70.0,1718.0,0.27,-0.75,11.0,-2.05,-4.44,2.24,17.46,70.0-80.0
70.0,2067.0,-0.35,-3.27,10.34,-3.61,-0.73,-2.31,17.45,70.0-80.0
70.0,1786.0,0.35,1.48,9.81,-0.39,2.24,0.66,17.47,70.0-80.0
70.0,1743.0,0.83,-2.66,10.38,-2.54,-1.07,-1.84,17.47,70.0-80.0
70.0,1855.0,-0.22,-0.08,11.12,-2.11,-1.16,1.85,17.47,70.0-80.0
70.0,1179.0,-1.32,-2.6,10.3,-2.69,-0.4,-1.73,17.48,70.0-80.0
70.0,1102.0,-0.28,1.79,9.04,0.68,2.99,0.33,17.44,70.0-80.0
70.0,748.0,0.51,-3.24,10.27,-3.48,-1.77,-1.52,17.45,70.0-80.0
70.0,286.0,0.42,0.69,10.59,-0.92,1.17,1.67,17.46,70.0-80.0
70.0,161.0,-0.94,-1.61,9.77,-0.98,1.39,-1.41,17.48,70.0-80.0
70.0,923.0,-1.13,1.89,9.46,1.89,3.71,-0.27,17.46,70.0-80.0
70.0,0.0,-1.2,-2.87,10.3,-3.13,-1.63,-1.61,17.44,70.0-80.0
70.0,330.0,0.49,1.58,9.43,0.18,2.47,0.76,17.44,70.0-80.0
70.0,0.0,0.22,-0.19,8.89,0.53,2.27,-1.14,17.48,70.0-80.0
70.0,602.0,-1.35,2.22,9.94,2.1,4.32,-1.21,17.45,70.0-80.0
70.0,434.0,-1.47,-2.67,10.45,-3.03,0.5,-1.78,17.46,70.0-80.0
70.0,539.0,-0.66,1.79,9.09,0.54,3.4,-0.14,17.45,70.0-80.0
70.0,1047.0,0.43,1.41,8.06,2.89,1.91,-0.21,17.45,70.0-80.0
70.0,656.0,0.6,0.55,10.23,-1.76,1.57,1.05,17.46,70.0-80.0
70.0,775.0,-0.67,-1.04,9.53,-0.46,2.72,-1.55,17.47,70.0-80.0
70.0,591.0,-1.77,2.23,9.63,2.19,5.0,-0.8,17.46,70.0-80.0
70.0,1314.0,-0.5,1.61,8.35,3.98,0.52,0.62,17.48,70.0-80.0
70.0,720.0,0.37,1.4,9.39,-0.25,2.79,0.56,17.46,70.0-80.0
70.0,645.0,0.13,0.39,8.7,1.09,2.41,-0.66,17.46,70.0-80.0
70.0,1266.0,-1.32,2.75,9.87,2.89,4.85,-1.14,17.48,70.0-80.0
70.0,961.0,-0.59,1.67,9.1,4.31,-0.55,0.97,17.46,70.0-80.0
70.0,1479.0,-1.04,2.0,9.0,1.02,3.81,-0.71,17.45,70.0-80.0
70.0,1223.0,-0.17,1.53,7.99,3.23,2.4,-0.53,17.45,70.0-80.0
70.0,1184.0,-0.05,2.46,9.02,2.62,3.63,-1.5,17.45,70.0-80.0
70.0,1200.0,0.06,0.6,10.5,2.77,-2.55,1.44,17.44,70.0-80.0
70.0,1166.0,-1.79,2.11,9.72,1.99,4.79,-1.01,17.42,70.0-80.0
70.0,1435.0,-0.79,1.53,8.41,3.82,0.3,0.74,17.46,70.0-80.0
70.0,1021.0,0.69,1.79,8.26,2.12,2.3,-0.79,17.45,70.0-80.0
70.0,1393.0,1.03,0.17,10.4,1.55,-4.15,2.34,17.45,70.0-80.0
70.0,732.0,-1.27,2.4,9.83,2.51,4.53,-0.82,17.45,70.0-80.0
70.0,2899.0,-0.85,1.42,9.21,4.18,0.14,1.2,17.45,70.0-80.0
70.0,981.0,0.2,1.46,8.04,2.25,0.58,-1.09,17.45,70.0-80.0
70.0,1744.0,1.42,-0.16,10.51,0.44,-5.95,2.05,17.47,70.0-80.0
70.0,1623.0,-0.19,2.99,8.88,3.35,4.21,-1.59,17.44,70.0-80.0
70.0,1599.0,0.06,0.93,10.37,3.21,-2.0,1.24,17.45,70.0-80.0
70.0,1846.0,-0.42,-0.15,9.11,0.65,-0.2,-1.14,17.46,70.0-80.0
70.0,2096.0,0.28,-0.29,10.6,-0.57,-5.45,2.68,17.46,70.0-80.0
70.0,1852.0,0.4,1.84,7.95,2.18,2.36,-0.95,17.45,70.0-80.0
70.0,1994.0,1.27,0.28,10.72,1.72,-4.18,2.28,17.45,70.0-80.0
70.0,1984.0,-0.31,-1.33,10.11,-0.3,-0.61,-0.92,17.47,70.0-80.0
70.0,1906.0,-0.32,-0.49,11.42,-1.17,-4.12,2.72,17.47,70.0-80.0
70.0,1245.0,0.07,0.85,8.13,1.76,1.07,-1.17,17.48,70.0-80.0
70.0,1722.0,0.99,-0.63,10.88,-0.42,-6.06,2.01,17.46,70.0-80.0
70.0,1449.0,0.31,-2.85,10.37,-2.6,-1.05,-1.88,17.47,70.0-80.0
70.0,1574.0,0.08,-0.11,11.3,-1.76,-0.29,1.5,17.48,70.0-80.0
70.0,2077.0,-0.58,-0.79,9.66,-0.28,-0.57,-1.4,17.48,70.0-80.0
70.0,1687.0,-0.06,-0.58,11.12,-1.61,-5.42,2.28,17.44,70.0-80.0
70.0,1213.0,-0.01,-2.81,10.09,-2.87,-1.11,-1.64,17.45,70.0-80.0
70.0,1581.0,0.99,0.9,10.51,-0.51,1.27,1.63,17.47,70.0-80.0
70.0,1239.0,-0.24,-1.72,10.33,-1.0,0.01,-1.05,17.47,70.0-80.0
70.0,1340.0,-0.69,0.12,11.19,-0.77,-2.53,2.66,17.45,70.0-80.0
70.0,663.0,-0.82,-2.74,10.18,-2.43,-1.18,-1.49,17.46,70.0-80.0
70.0,53.0,0.6,1.73,9.41,0.33,2.26,0.95,17.46,70.0-80.0
70.0,449.0,0.43,-3.05,10.31,-2.95,-1.24,-1.72,17.46,70.0-80.0
70.0,473.0,0.18,0.38,11.15,-1.2,0.56,1.46,17.49,70.0-80.0
70.0,115.0,-1.66,-1.77,9.96,-1.7,0.61,-2.04,17.44,70.0-80.0
70.0,368.0,-0.58,2.12,9.33,1.38,3.43,-0.33,17.46,70.0-80.0
70.0,118.0,-0.35,-2.74,9.88,-2.95,-1.11,-2.16,17.47,70.0-80.0
70.0,495.0,0.86,1.37,10.0,-0.36,1.57,0.94,17.47,70.0-80.0
70.0,575.0,-0.74,-1.01,9.66,-0.16,0.75,-1.34,17.49,70.0-80.0
70.0,464.0,-1.38,1.61,10.09,1.37,2.91,-0.62,17.47,70.0-80.0
70.0,595.0,-1.26,-2.65,10.16,-2.34,-0.66,-1.69,17.48,70.0-80.0
70.0,804.0,0.26,1.63,9.2,0.39,2.15,0.5,17.45,70.0-80.0
70.0,295.0,-0.09,0.77,8.6,2.16,2.01,-0.34,17.48,70.0-80.0
70.0,947.0,-0.79,2.21,9.66,2.68,3.72,-0.57,17.47,70.0-80.0
70.0,911.0,-1.59,-1.42,9.87,-1.06,0.82,-1.27,17.49,70.0-80.0
70.0,460.0,-1.04,2.07,9.47,1.89,3.33,0.01,17.47,70.0-80.0
70.0,882.0,0.07,1.03,8.34,2.63,0.15,0.5,17.49,70.0-80.0
70.0,1051.0,0.39,1.66,9.21,1.44,1.92,-1.2,17.48,70.0-80.0
70.0,1089.0,-0.33,-0.56,9.26,-0.04,1.45,-1.46,17.47,70.0-80.0
70.0,1085.0,-1.56,2.01,10.09,2.07,4.07,-1.43,17.48,70.0-80.0
70.0,862.0,-0.79,1.24,8.64,3.78,-0.06,0.69,17.46,70.0-80.0
70.0,1488.0,0.71,1.02,8.34,1.29,0.78,-1.11,17.46,70.0-80.0
70.0,841.0,0.05,0.94,8.1,2.47,2.47,0.07,17.47,70.0-80.0
70.0,906.0,-0.3,2.08,9.51,2.21,2.94,-0.57,17.47,70.0-80.0
70.0,1463.0,-0.23,0.54,10.19,3.02,-1.97,2.2,17.48,70.0-80.0
70.0,1898.0,-0.37,-0.25,9.06,0.54,-0.12,-0.86,17.47,70.0-80.0
70.0,1279.0,-0.13,1.18,8.42,3.5,0.55,0.79,17.47,70.0-80.0
70.0,874.0,0.44,1.52,8.37,1.46,1.86,-1.69,17.47,70.0-80.0
70.0,1808.0,0.78,0.19,10.46,1.46,-3.71,1.29,17.47,70.0-80.0
70.0,1599.0,-0.15,-1.71,10.26,-1.07,-0.55,-1.95,17.47,70.0-80.0
