Speed,Voice,Acceleration X,Acceleration Y,Acceleration Z,Gyro X,Gyro Y,Gyro Z,Temperature,Speed_Range
70.0,2166.0,-0.03,1.17,9.32,2.02,-0.91,0.52,27.8,70.0-80.0
70.0,1013.0,-0.67,-1.11,10.29,-2.08,0.79,-0.79,27.79,70.0-80.0
70.0,452.0,0.1,1.08,9.32,1.86,-0.92,0.84,27.8,70.0-80.0
70.0,895.0,-1.01,-1.33,10.15,-2.48,1.06,-0.08,27.81,70.0-80.0
70.0,718.0,-0.96,1.1,10.08,2.18,-1.46,1.17,27.8,70.0-80.0
70.0,335.0,0.11,-0.91,9.67,-2.32,1.14,1.6,27.8,70.0-80.0
70.0,336.0,-0.8,1.5,9.95,2.33,-2.5,1.34,27.81,70.0-80.0
70.0,411.0,0.11,-1.26,10.38,-2.39,1.32,-0.64,27.82,70.0-80.0
70.0,353.0,-1.63,0.74,9.47,2.27,0.53,-1.62,27.81,70.0-80.0
70.0,800.0,0.0,-1.03,9.44,-2.81,0.37,-0.93,27.8,70.0-80.0
70.0,891.0,-0.43,1.63,9.91,3.21,-1.79,-0.64,27.82,70.0-80.0
70.0,0.0,-0.52,-1.56,10.18,-2.54,2.02,-1.33,27.81,70.0-80.0
70.0,577.0,-1.6,1.37,9.44,3.08,0.43,-0.32,27.82,70.0-80.0
70.0,1322.0,-0.27,-1.58,9.58,-3.47,0.98,0.6,27.81,70.0-80.0
70.0,2163.0,0.17,1.7,9.8,2.53,-3.33,2.55,27.81,70.0-80.0
70.0,1562.0,-1.51,-1.29,9.86,-1.55,2.59,-0.55,27.8,70.0-80.0
70.0,2529.0,-0.05,1.97,9.52,3.44,-1.38,1.31,27.78,70.0-80.0
70.0,930.0,-1.32,-1.38,9.93,-1.88,2.42,-1.53,27.81,70.0-80.0
70.0,1269.0,0.63,1.38,10.03,1.05,-3.5,1.22,27.82,70.0-80.0
70.0,1846.0,-0.94,-0.9,10.08,-0.46,0.95,-3.25,27.82,70.0-80.0
70.0,2205.0,0.75,1.39,10.02,0.83,-4.16,0.89,27.8,70.0-80.0
70.0,1926.0,-0.77,-1.19,10.03,-0.68,1.17,-2.49,27.82,70.0-80.0
70.0,1649.0,1.26,-0.9,9.74,-1.93,0.3,1.65,27.81,70.0-80.0
70.0,1072.0,-1.73,2.62,9.31,4.21,1.0,1.1,27.83,70.0-80.0
70.0,1854.0,1.19,-0.86,9.68,-1.73,0.4,2.33,27.83,70.0-80.0
70.0,2613.0,-1.76,2.94,9.27,4.71,1.08,1.16,27.81,70.0-80.0
70.0,1535.0,-1.23,-1.79,9.78,-2.75,2.54,-0.67,27.8,70.0-80.0
70.0,1623.0,1.03,1.57,10.19,-0.02,-4.66,1.27,27.81,70.0-80.0
70.0,2384.0,-1.5,-1.82,9.65,-2.57,2.85,-1.92,27.83,70.0-80.0
70.0,2167.0,0.75,1.56,10.22,-0.48,-4.86,0.73,27.82,70.0-80.0
70.0,1567.0,-0.44,-1.18,10.54,-0.16,-1.14,-2.55,27.82,70.0-80.0
70.0,1821.0,1.74,-2.46,9.58,-3.93,0.53,0.12,27.81,70.0-80.0
70.0,927.0,-0.67,-0.87,10.7,-0.14,-2.28,-1.25,27.82,70.0-80.0
70.0,1207.0,1.69,-3.12,9.59,-5.21,-0.24,0.67,27.82,70.0-80.0
70.0,2762.0,0.18,2.82,9.55,5.18,0.53,2.44,27.83,70.0-80.0
70.0,2210.0,-2.66,-1.36,8.81,0.67,5.76,-0.87,27.82,70.0-80.0
70.0,1971.0,1.03,2.42,9.95,4.07,-1.32,1.74,27.82,70.0-80.0
70.0,2275.0,-2.11,-1.5,8.78,1.55,5.7,-2.14,27.84,70.0-80.0
70.0,2173.0,-0.14,1.29,8.77,0.19,2.57,0.75,27.82,70.0-80.0
70.0,1044.0,-3.19,3.65,10.39,4.94,-1.99,0.05,27.83,70.0-80.0
70.0,2255.0,0.73,0.29,8.75,-0.49,3.73,0.49,27.81,70.0-80.0
70.0,1709.0,-2.92,4.42,9.74,6.86,0.02,1.69,27.84,70.0-80.0
70.0,1424.0,-1.46,-2.53,9.01,-4.34,3.06,-1.33,27.82,70.0-80.0
70.0,2454.0,0.25,1.75,10.64,-2.49,-5.27,2.59,27.81,70.0-80.0
70.0,2613.0,-2.67,-1.77,8.43,-1.52,6.35,-1.05,27.81,70.0-80.0
70.0,1104.0,-0.91,2.02,9.99,-1.91,-1.15,2.15,27.81,70.0-80.0
70.0,827.0,-2.05,1.14,11.0,1.98,-5.15,0.03,27.81,70.0-80.0
70.0,958.0,0.96,-4.32,10.09,-8.46,-1.32,-2.75,27.8,70.0-80.0
70.0,1535.0,-2.92,3.43,10.68,4.56,-4.11,0.55,27.82,70.0-80.0
70.0,2718.0,-0.31,-3.74,9.52,-7.7,0.5,-3.19,27.82,70.0-80.0
70.0,2554.0,1.74,1.48,11.52,-1.59,-8.16,1.66,27.79,70.0-80.0
70.0,1747.0,0.34,-1.66,10.07,1.34,-1.64,-1.21,27.8,70.0-80.0
70.0,1157.0,0.04,1.82,11.04,-2.81,-6.05,2.33,27.82,70.0-80.0
70.0,652.0,-0.56,-0.26,10.86,1.23,-5.36,0.37,27.81,70.0-80.0
70.0,2084.0,1.14,-4.65,9.98,-8.05,0.66,-1.74,27.8,70.0-80.0
70.0,2339.0,1.89,2.5,11.37,3.55,-6.02,3.13,27.81,70.0-80.0
70.0,2298.0,0.17,-4.26,9.92,-8.6,0.94,-3.05,27.82,70.0-80.0
70.0,2761.0,2.34,1.6,11.78,-0.49,-9.18,1.75,27.82,70.0-80.0
70.0,1535.0,0.21,-1.75,9.45,2.07,0.42,-2.18,27.82,70.0-80.0
70.0,1280.0,1.74,-3.3,9.45,-4.96,3.99,-2.18,27.8,70.0-80.0
70.0,1904.0,-0.53,-0.57,10.43,1.63,-4.22,-0.81,27.78,70.0-80.0
70.0,1265.0,1.29,-4.75,10.07,-7.85,1.38,-2.43,27.81,70.0-80.0
70.0,2878.0,1.64,2.76,11.18,4.34,-5.39,3.57,27.81,70.0-80.0
70.0,1282.0,-0.95,-1.84,8.13,2.47,5.78,-1.08,27.82,70.0-80.0
70.0,1867.0,2.3,1.72,11.62,-0.07,-9.07,3.17,27.8,70.0-80.0
70.0,1247.0,-0.03,-1.61,9.39,2.04,0.69,-1.19,27.82,70.0-80.0
70.0,1325.0,1.59,-3.23,9.52,-5.13,3.84,-1.91,27.81,70.0-80.0
70.0,1683.0,-0.04,4.1,9.85,7.9,-1.67,2.82,27.83,70.0-80.0
70.0,1141.0,1.19,-4.75,9.95,-8.02,1.55,-3.51,27.83,70.0-80.0
70.0,2125.0,1.87,2.67,11.14,4.01,-5.76,2.5,27.82,70.0-80.0
70.0,2054.0,-0.8,-1.88,8.18,2.47,5.26,-1.92,27.82,70.0-80.0
70.0,1072.0,1.09,-1.07,9.24,-3.03,5.04,-0.17,27.82,70.0-80.0
70.0,0.0,0.07,-1.48,9.52,2.1,0.1,-0.64,27.82,70.0-80.0
70.0,1328.0,1.52,-3.68,9.6,-5.74,3.59,-1.4,27.83,70.0-80.0
70.0,2275.0,0.41,3.89,10.14,7.32,-2.48,3.91,27.83,70.0-80.0
70.0,2128.0,-2.28,-1.59,7.86,1.76,8.28,-2.17,27.81,70.0-80.0
70.0,664.0,2.06,2.49,11.27,3.23,-6.89,2.67,27.84,70.0-80.0
70.0,1967.0,-0.4,-1.82,8.55,2.65,4.02,-2.15,27.82,70.0-80.0
70.0,909.0,1.19,-1.74,9.19,-3.61,5.0,-1.53,27.81,70.0-80.0
70.0,2000.0,-0.93,4.71,9.28,8.69,-1.14,3.31,27.82,70.0-80.0
70.0,1147.0,1.46,-4.29,9.8,-6.84,2.69,-2.5,27.83,70.0-80.0
70.0,2926.0,0.92,3.55,10.54,6.33,-3.67,3.66,27.84,70.0-80.0
70.0,1493.0,-1.76,-1.75,8.02,2.02,7.16,-1.51,27.81,70.0-80.0
70.0,1038.0,0.42,-0.03,9.23,-2.46,4.49,0.6,27.82,70.0-80.0
70.0,1312.0,-0.19,-1.73,8.84,2.51,2.68,-1.19,27.82,70.0-80.0
70.0,1078.0,1.38,-2.52,9.42,-4.45,4.48,-1.5,27.82,70.0-80.0
70.0,2423.0,-0.35,4.43,9.45,8.33,-1.63,3.3,27.83,70.0-80.0
70.0,1190.0,-2.7,-1.71,8.06,0.32,8.4,-2.93,27.83,70.0-80.0
70.0,2042.0,1.44,3.12,10.94,5.17,-4.89,2.82,27.82,70.0-80.0
70.0,1081.0,-1.25,-1.83,8.19,2.44,5.94,-2.21,27.8,70.0-80.0
70.0,843.0,0.89,-0.8,9.16,-2.98,4.81,-0.35,27.83,70.0-80.0
70.0,915.0,-1.52,4.98,9.11,8.4,-1.26,3.8,27.83,70.0-80.0
70.0,1183.0,1.51,-3.41,9.54,-5.67,3.9,-1.5,27.81,70.0-80.0
70.0,1830.0,0.24,4.03,9.97,7.56,-2.3,4.03,27.81,70.0-80.0
70.0,1389.0,-2.46,-1.7,7.97,1.19,7.88,-1.98,27.8,70.0-80.0
70.0,0.0,0.07,0.61,9.39,-2.26,3.01,0.44,27.81,70.0-80.0
70.0,17.0,-0.48,-1.9,8.44,2.45,4.26,-2.01,27.82,70.0-80.0
70.0,432.0,1.16,-1.6,9.29,-3.62,5.13,-1.36,27.81,70.0-80.0
70.0,1883.0,-1.08,4.77,9.15,8.78,-0.79,3.28,27.8,70.0-80.0
70.0,1232.0,-2.85,-1.93,8.21,-0.97,7.84,-2.78,27.8,70.0-80.0
70.0,1467.0,0.81,3.64,10.52,6.51,-3.88,3.6,27.79,70.0-80.0
70.0,880.0,-1.79,-1.69,7.91,2.1,7.47,-1.79,27.8,70.0-80.0
70.0,734.0,0.55,-0.11,9.19,-2.68,4.25,0.44,27.8,70.0-80.0
70.0,603.0,-1.92,5.0,9.23,7.98,-1.87,3.63,27.79,70.0-80.0
70.0,545.0,1.33,-2.67,9.38,-4.86,4.52,-1.45,27.82,70.0-80.0
70.0,1500.0,-0.26,4.41,9.62,8.25,-1.76,3.59,27.82,70.0-80.0
70.0,1034.0,-2.68,-1.71,8.02,0.36,8.23,-2.73,27.79,70.0-80.0
70.0,308.0,-0.38,0.9,9.62,-2.4,2.22,0.35,27.82,70.0-80.0
70.0,27.0,-0.94,-1.82,8.2,2.59,5.81,-2.18,27.81,70.0-80.0
70.0,251.0,0.9,-1.01,9.23,-3.16,4.71,-0.72,27.81,70.0-80.0
70.0,1491.0,-1.35,4.91,9.17,8.56,-1.46,3.66,27.81,70.0-80.0
70.0,1114.0,-2.76,-2.12,8.32,-2.02,7.56,-2.38,27.81,70.0-80.0
70.0,2295.0,0.33,3.92,10.2,7.26,-2.75,4.03,27.81,70.0-80.0
70.0,529.0,-2.13,-1.69,7.88,1.54,7.91,-1.95,27.81,70.0-80.0
70.0,126.0,0.31,0.31,9.47,-2.54,3.32,0.32,27.8,70.0-80.0
70.0,84.0,-2.11,4.94,9.29,7.75,-2.28,3.02,27.79,70.0-80.0
70.0,704.0,1.19,-2.13,9.28,-4.23,4.83,-1.59,27.81,70.0-80.0
70.0,1807.0,-0.6,4.56,9.42,8.6,-1.37,3.3,27.8,70.0-80.0
70.0,656.0,-2.8,-1.82,8.09,-0.33,8.16,-2.81,27.83,70.0-80.0
70.0,771.0,-0.46,1.17,9.9,-2.39,0.74,1.02,27.83,70.0-80.0
70.0,791.0,-1.38,-1.82,8.08,2.31,6.6,-1.94,27.81,70.0-80.0
70.0,974.0,0.72,-0.57,9.21,-3.0,4.49,-0.0,27.8,70.0-80.0
70.0,1180.0,-1.67,4.96,9.21,8.34,-1.49,3.77,27.82,70.0-80.0
70.0,763.0,-2.6,-2.31,8.33,-2.77,6.83,-2.61,27.82,70.0-80.0
70.0,2645.0,0.12,4.19,9.89,7.9,-2.39,3.74,27.82,70.0-80.0
70.0,629.0,-2.42,-1.64,8.09,1.08,7.88,-2.41,27.81,70.0-80.0
70.0,129.0,0.07,0.62,9.49,-2.31,2.62,0.24,27.8,70.0-80.0
70.0,257.0,-0.68,-1.78,8.37,2.63,4.72,-2.15,27.81,70.0-80.0
70.0,910.0,1.13,-1.65,9.22,-3.76,4.94,-1.21,27.81,70.0-80.0
70.0,2001.0,-0.94,4.71,9.17,8.49,-1.55,3.63,27.8,70.0-80.0
70.0,297.0,-2.83,-1.95,8.12,-1.07,8.2,-2.43,27.83,70.0-80.0
70.0,349.0,0.81,3.62,10.52,6.59,-3.7,3.83,27.82,70.0-80.0
70.0,609.0,-1.75,-1.82,7.95,1.89,7.39,-1.86,27.81,70.0-80.0
70.0,171.0,0.49,-0.13,9.19,-2.72,4.26,0.24,27.8,70.0-80.0
70.0,1364.0,-1.86,5.04,9.21,8.33,-1.73,3.46,27.8,70.0-80.0
70.0,334.0,1.34,-2.77,9.38,-4.92,4.48,-1.83,27.83,70.0-80.0
70.0,1264.0,-0.15,4.39,9.65,8.34,-1.87,3.43,27.8,70.0-80.0
70.0,599.0,-2.79,-1.7,7.86,0.59,8.48,-2.69,27.84,70.0-80.0
70.0,48.0,-0.35,0.92,9.64,-2.35,2.3,0.58,27.81,70.0-80.0
70.0,891.0,-0.92,-1.84,8.24,2.53,5.64,-1.86,27.83,70.0-80.0
70.0,750.0,0.96,-1.11,9.15,-3.38,4.74,-0.52,27.81,70.0-80.0
70.0,2747.0,-1.17,4.89,9.17,8.59,-1.5,3.89,27.81,70.0-80.0
70.0,954.0,-2.87,-2.09,8.24,-1.78,7.67,-2.5,27.81,70.0-80.0
70.0,1475.0,0.5,3.91,10.3,7.21,-3.18,3.83,27.81,70.0-80.0
70.0,715.0,-1.97,-1.79,7.94,1.66,7.51,-2.18,27.82,70.0-80.0
70.0,734.0,0.46,0.15,9.29,-2.48,3.75,0.05,27.82,70.0-80.0
70.0,1589.0,-2.13,5.04,9.25,8.08,-2.04,3.08,27.82,70.0-80.0
70.0,1447.0,1.29,-2.26,9.24,-4.35,5.0,-1.72,27.82,70.0-80.0
70.0,2718.0,-0.47,4.54,9.49,8.57,-1.66,3.66,27.8,70.0-80.0
70.0,1177.0,-2.91,-1.75,8.02,0.06,8.26,-2.53,27.81,70.0-80.0
70.0,1760.0,-0.38,1.1,9.8,-2.43,1.33,1.07,27.81,70.0-80.0
70.0,0.0,-1.05,-1.81,8.04,2.5,6.32,-1.68,27.8,70.0-80.0
70.0,1922.0,0.91,-0.76,9.17,-3.15,4.63,-0.26,27.79,70.0-80.0
70.0,2377.0,-1.43,4.93,9.19,8.49,-1.5,3.69,27.79,70.0-80.0
70.0,884.0,-2.81,-2.25,8.35,-2.46,7.1,-2.82,27.8,70.0-80.0
70.0,1713.0,0.3,4.03,10.09,7.43,-2.82,3.48,27.79,70.0-80.0
70.0,1729.0,-2.17,-1.69,7.98,1.32,7.91,-2.46,27.79,70.0-80.0
70.0,972.0,0.11,0.33,9.34,-2.43,3.3,0.23,27.82,70.0-80.0
70.0,1242.0,-2.12,4.83,9.43,7.46,-2.54,3.1,27.82,70.0-80.0
70.0,1780.0,1.33,-1.97,9.23,-4.12,4.98,-1.24,27.81,70.0-80.0
70.0,2399.0,-0.8,4.68,9.39,8.71,-1.37,3.92,27.82,70.0-80.0
70.0,1605.0,-2.91,-1.84,8.15,-0.51,8.25,-2.4,27.81,70.0-80.0
70.0,1891.0,-0.53,1.27,9.92,-2.4,0.71,1.25,27.82,70.0-80.0
70.0,1426.0,-1.47,-1.78,8.16,2.16,6.37,-1.95,27.81,70.0-80.0
70.0,1360.0,0.75,-0.52,9.18,-3.01,4.34,-0.34,27.82,70.0-80.0
70.0,2550.0,-1.6,4.94,9.28,8.23,-1.87,3.36,27.81,70.0-80.0
70.0,1925.0,-2.64,-2.35,8.31,-2.8,7.13,-3.04,27.82,70.0-80.0
70.0,1835.0,0.09,4.09,9.91,7.5,-2.86,3.51,27.83,70.0-80.0
70.0,1632.0,-2.39,-1.74,7.99,1.08,7.96,-2.4,27.8,70.0-80.0
70.0,566.0,-0.06,0.5,9.48,-2.54,2.54,0.67,27.79,70.0-80.0
70.0,1567.0,-2.14,4.71,9.43,7.29,-2.53,3.16,27.79,70.0-80.0
70.0,2096.0,1.16,-1.67,9.21,-3.88,4.86,-0.89,27.82,70.0-80.0
70.0,2758.0,-0.89,4.74,9.33,8.68,-1.53,3.85,27.82,70.0-80.0
70.0,1266.0,-2.86,-1.98,8.24,-1.01,7.76,-2.64,27.8,70.0-80.0
70.0,2014.0,-0.55,1.37,10.08,-2.45,-0.21,1.08,27.81,70.0-80.0
70.0,491.0,-1.58,-1.84,8.08,1.99,7.12,-2.3,27.81,70.0-80.0
70.0,1952.0,0.57,-0.27,9.21,-2.87,4.28,-0.27,27.83,70.0-80.0
70.0,2327.0,-1.91,5.07,9.17,8.3,-1.52,3.36,27.8,70.0-80.0
70.0,1680.0,-2.47,-2.61,8.48,-3.56,6.52,-2.93,27.82,70.0-80.0
70.0,2704.0,-0.11,4.27,9.75,7.96,-2.3,3.88,27.8,70.0-80.0
70.0,1765.0,-2.55,-1.71,8.05,0.67,8.14,-2.24,27.81,70.0-80.0
70.0,1377.0,-0.21,0.77,9.57,-2.45,2.2,0.87,27.8,70.0-80.0
70.0,1083.0,-2.28,4.58,9.63,6.91,-3.09,3.05,27.82,70.0-80.0
70.0,1730.0,1.12,-1.43,9.16,-3.62,4.71,-0.9,27.82,70.0-80.0
70.0,2699.0,-0.99,4.77,9.34,8.66,-1.56,3.57,27.79,70.0-80.0
70.0,2059.0,-2.89,-1.98,8.22,-1.3,7.77,-2.87,27.82,70.0-80.0
70.0,1815.0,-0.68,1.47,10.27,-2.48,-0.65,1.16,27.82,70.0-80.0
70.0,752.0,-1.82,-1.74,8.06,1.9,7.39,-2.35,27.8,70.0-80.0
70.0,1535.0,0.56,-0.1,9.28,-2.83,3.68,0.12,27.8,70.0-80.0
70.0,1840.0,-1.87,4.89,9.28,7.87,-2.01,3.48,27.81,70.0-80.0
70.0,1118.0,-2.42,-2.69,8.46,-3.93,6.32,-2.96,27.79,70.0-80.0
70.0,2926.0,-0.12,4.35,9.65,8.13,-2.07,3.78,27.8,70.0-80.0
70.0,1744.0,-2.67,-1.79,8.05,0.38,8.11,-2.47,27.79,70.0-80.0
70.0,1553.0,-0.23,0.88,9.66,-2.52,1.88,0.73,27.79,70.0-80.0
70.0,1553.0,-2.4,4.55,9.61,6.94,-2.85,2.81,27.81,70.0-80.0
70.0,1216.0,1.01,-1.17,9.11,-3.42,4.83,-0.89,27.82,70.0-80.0
70.0,2916.0,-1.13,4.83,9.29,8.6,-1.59,3.56,27.8,70.0-80.0
70.0,1875.0,-2.9,-2.16,8.17,-1.79,7.64,-2.84,27.81,70.0-80.0
70.0,2134.0,-0.69,1.57,10.37,-2.55,-1.0,1.42,27.83,70.0-80.0
70.0,781.0,-1.99,-1.77,8.0,1.66,7.51,-2.23,27.8,70.0-80.0
70.0,807.0,0.33,0.15,9.23,-2.68,3.84,0.29,27.8,70.0-80.0
70.0,1781.0,-1.82,4.92,9.36,7.73,-2.24,3.46,27.82,70.0-80.0
70.0,1277.0,-2.33,-2.83,8.51,-4.4,5.97,-3.05,27.82,70.0-80.0
70.0,2520.0,-0.46,4.47,9.57,8.28,-2.01,3.71,27.82,70.0-80.0
70.0,1806.0,-2.69,-1.76,8.07,0.15,8.32,-2.62,27.82,70.0-80.0
70.0,1098.0,-0.34,1.03,9.76,-2.43,1.37,0.9,27.81,70.0-80.0
70.0,1322.0,-2.25,4.22,9.76,6.43,-3.53,2.69,27.81,70.0-80.0
70.0,1702.0,0.92,-0.97,9.18,-3.36,4.51,-0.58,27.8,70.0-80.0
70.0,2926.0,-1.26,4.87,9.22,8.59,-1.43,3.6,27.81,70.0-80.0
70.0,1535.0,-2.77,-2.23,8.31,-2.17,7.47,-2.85,27.79,70.0-80.0
70.0,1844.0,-0.71,1.64,10.46,-2.43,-1.66,1.57,27.82,70.0-80.0
70.0,955.0,-2.12,-1.73,8.04,1.51,7.62,-2.26,27.81,70.0-80.0
70.0,383.0,0.28,0.28,9.36,-2.63,3.33,0.4,27.81,70.0-80.0
70.0,1307.0,-2.1,5.01,9.28,7.88,-2.04,3.37,27.81,70.0-80.0
70.0,870.0,-2.07,-2.96,8.68,-4.8,5.53,-3.2,27.82,70.0-80.0
70.0,2357.0,-0.52,4.53,9.53,8.37,-1.69,3.69,27.81,70.0-80.0
70.0,1156.0,-2.89,-1.87,8.12,-0.36,8.09,-2.72,27.81,70.0-80.0
70.0,473.0,-0.42,1.09,9.93,-2.51,1.06,0.79,27.8,70.0-80.0
70.0,393.0,-2.52,4.17,9.73,6.28,-3.43,2.66,27.8,70.0-80.0
70.0,1594.0,0.97,-0.75,9.16,-3.15,4.45,-0.41,27.79,70.0-80.0
70.0,2196.0,-1.43,4.92,9.2,8.49,-1.58,3.62,27.77,70.0-80.0
70.0,1857.0,-2.71,-2.29,8.36,-2.45,7.04,-2.82,27.81,70.0-80.0
70.0,1664.0,-0.67,1.61,10.5,-2.4,-1.78,1.53,27.81,70.0-80.0
70.0,176.0,-2.18,-1.76,8.1,1.28,7.53,-2.32,27.82,70.0-80.0
70.0,1119.0,0.22,0.33,9.4,-2.69,3.07,0.35,27.8,70.0-80.0
70.0,1179.0,-2.01,4.9,9.35,7.69,-2.36,3.22,27.82,70.0-80.0
70.0,946.0,-2.06,-3.05,8.71,-4.89,5.39,-3.33,27.82,70.0-80.0
70.0,1975.0,-0.48,4.5,9.5,8.4,-1.95,3.63,27.83,70.0-80.0
70.0,1393.0,-2.93,-1.86,8.14,-0.39,8.12,-2.61,27.8,70.0-80.0
70.0,0.0,-0.48,1.26,9.8,-2.37,1.32,1.14,27.82,70.0-80.0
70.0,665.0,-2.38,4.16,9.72,6.17,-3.58,2.7,27.79,70.0-80.0
70.0,206.0,0.79,-0.71,9.13,-3.16,4.66,-0.29,27.79,70.0-80.0
70.0,1665.0,-1.37,4.91,9.23,8.63,-1.59,3.77,27.82,70.0-80.0
70.0,389.0,-2.74,-2.4,8.33,-2.6,7.15,-2.98,27.81,70.0-80.0
70.0,1380.0,-0.76,1.74,10.58,-2.51,-1.85,1.56,27.83,70.0-80.0
70.0,911.0,-2.24,-1.76,8.02,1.37,7.93,-2.4,27.8,70.0-80.0
70.0,1071.0,0.17,0.41,9.29,-2.57,3.15,0.4,27.81,70.0-80.0
70.0,814.0,-2.07,4.87,9.45,7.55,-2.48,3.16,27.8,70.0-80.0
70.0,795.0,-2.04,-3.14,8.7,-5.09,5.26,-3.36,27.81,70.0-80.0
70.0,1095.0,-0.64,4.62,9.5,8.69,-1.73,3.75,27.79,70.0-80.0
70.0,1311.0,-2.84,-1.95,8.13,-0.62,8.03,-2.69,27.81,70.0-80.0
70.0,503.0,-0.42,1.25,9.89,-2.55,0.82,1.13,27.79,70.0-80.0
70.0,682.0,-2.35,4.12,9.82,6.24,-3.52,2.81,27.82,70.0-80.0
70.0,1046.0,0.76,-0.69,9.1,-3.21,4.58,-0.37,27.82,70.0-80.0
70.0,2413.0,-1.35,4.82,9.2,8.39,-1.44,3.48,27.81,70.0-80.0
70.0,1125.0,-2.72,-2.4,8.34,-2.58,7.18,-3.1,27.82,70.0-80.0
70.0,1249.0,-0.68,1.78,10.54,-2.37,-2.11,1.56,27.82,70.0-80.0
70.0,746.0,-2.21,-1.8,8.04,1.26,8.08,-2.46,27.82,70.0-80.0
70.0,1106.0,0.07,0.51,9.28,-2.55,3.41,0.4,27.82,70.0-80.0
70.0,1733.0,-2.06,4.91,9.3,7.85,-2.04,3.28,27.78,70.0-80.0
70.0,464.0,-2.07,-3.15,8.7,-5.24,5.04,-3.16,27.81,70.0-80.0
70.0,1487.0,-0.47,4.61,9.37,8.56,-1.76,3.88,27.79,70.0-80.0
70.0,690.0,-2.77,-1.91,8.05,-0.51,8.29,-2.64,27.79,70.0-80.0
70.0,1291.0,-0.45,1.28,9.9,-2.54,0.75,1.13,27.83,70.0-80.0
70.0,212.0,-2.41,4.08,9.74,6.11,-3.4,2.64,27.82,70.0-80.0
70.0,1242.0,0.64,-0.66,9.08,-3.15,4.58,-0.38,27.8,70.0-80.0
70.0,2263.0,-1.28,4.83,9.27,8.4,-1.84,3.62,27.79,70.0-80.0
70.0,731.0,-2.71,-2.47,8.32,-2.77,7.15,-3.11,27.8,70.0-80.0
70.0,1168.0,-0.57,1.79,10.55,-2.4,-2.04,1.62,27.8,70.0-80.0
70.0,1472.0,-2.2,-1.79,8.07,1.15,7.93,-2.46,27.79,70.0-80.0
70.0,1210.0,0.06,0.51,9.32,-2.64,3.01,0.6,27.82,70.0-80.0
70.0,1328.0,-1.93,4.9,9.42,7.73,-2.46,3.46,27.79,70.0-80.0
70.0,709.0,-1.98,-3.2,8.69,-5.32,5.06,-3.23,27.79,70.0-80.0
70.0,2217.0,-0.57,4.65,9.48,8.43,-1.98,3.83,27.82,70.0-80.0
70.0,562.0,-2.9,-1.97,8.22,-0.66,8.05,-2.84,27.82,70.0-80.0
70.0,317.0,-0.51,1.19,9.82,-2.61,0.57,0.95,27.79,70.0-80.0
70.0,1048.0,-2.22,4.06,9.83,6.14,-3.52,2.49,27.83,70.0-80.0
70.0,1911.0,0.8,-0.69,9.06,-3.33,4.52,-0.41,27.79,70.0-80.0
70.0,2527.0,-1.41,4.87,9.28,8.42,-1.78,3.62,27.8,70.0-80.0
70.0,1417.0,-2.74,-2.46,8.34,-2.74,7.1,-2.9,27.83,70.0-80.0
70.0,2273.0,-0.61,1.75,10.64,-2.45,-2.11,1.66,27.79,70.0-80.0
70.0,2256.0,-2.24,-1.82,8.19,1.23,7.64,-2.32,27.8,70.0-80.0
70.0,1139.0,0.16,0.4,9.34,-2.6,3.09,0.44,27.83,70.0-80.0
70.0,1438.0,-1.85,0.22,9.45,1.28,0.1,-1.22,27.42,70.0-80.0
70.0,1727.0,0.72,0.42,10.51,-0.72,-2.42,1.42,27.42,70.0-80.0
70.0,1978.0,-1.88,0.1,9.53,1.29,0.11,-0.09,27.43,70.0-80.0
70.0,2507.0,0.45,0.64,9.45,0.41,-1.67,2.12,27.42,70.0-80.0
70.0,2602.0,-1.29,-1.23,9.27,-1.61,3.88,-0.35,27.43,70.0-80.0
70.0,1913.0,0.14,0.77,9.58,-0.17,-1.93,2.18,27.44,70.0-80.0
70.0,1684.0,-1.27,-0.75,9.42,-0.55,3.73,-1.89,27.4,70.0-80.0
70.0,1920.0,0.04,1.04,9.13,1.8,-0.82,-0.0,27.43,70.0-80.0
70.0,2063.0,-1.22,-1.53,9.63,-2.28,3.17,-3.33,27.42,70.0-80.0
70.0,2401.0,0.7,0.83,9.49,0.88,-0.92,-0.31,27.41,70.0-80.0
70.0,2057.0,-1.3,-1.18,9.48,-1.2,3.79,-3.16,27.42,70.0-80.0
70.0,2321.0,0.31,1.07,9.54,1.76,-2.4,1.01,27.45,70.0-80.0
70.0,1853.0,-1.44,-1.58,9.62,-2.0,3.68,-1.5,27.44,70.0-80.0
70.0,2192.0,0.42,1.0,9.47,0.48,-0.77,3.2,27.44,70.0-80.0
70.0,2198.0,-1.58,-0.24,9.53,-0.36,2.07,-0.76,27.43,70.0-80.0
70.0,1981.0,0.98,1.15,10.03,1.06,-2.1,2.67,27.41,70.0-80.0
70.0,1710.0,-1.05,-0.92,9.85,-1.06,2.54,-2.35,27.44,70.0-80.0
70.0,2181.0,0.18,0.25,9.15,-0.63,1.17,0.95,27.43,70.0-80.0
70.0,1167.0,-2.09,2.08,9.01,3.61,1.44,-1.74,27.42,70.0-80.0
70.0,1559.0,0.47,0.66,9.28,-0.08,0.39,0.79,27.42,70.0-80.0
70.0,1433.0,-2.52,1.77,9.08,2.77,1.62,-1.34,27.41,70.0-80.0
70.0,1769.0,0.46,-2.22,9.67,-3.88,0.65,0.11,27.42,70.0-80.0
70.0,1630.0,0.8,1.42,10.08,1.81,-5.03,2.15,27.42,70.0-80.0
70.0,2278.0,0.59,-2.29,9.63,-4.22,0.6,1.25,27.44,70.0-80.0
70.0,2875.0,0.89,1.66,10.14,2.24,-4.4,2.23,27.41,70.0-80.0
70.0,2598.0,-1.92,-1.73,9.56,-0.72,3.5,-1.45,27.44,70.0-80.0
70.0,2448.0,0.36,1.36,9.39,0.44,0.27,1.66,27.42,70.0-80.0
70.0,1936.0,-2.28,-1.66,9.42,-0.33,3.85,-2.93,27.42,70.0-80.0
70.0,1621.0,0.29,1.34,9.3,0.45,0.59,0.66,27.42,70.0-80.0
70.0,19.0,-2.53,1.77,9.94,2.41,-1.06,-1.4,27.42,70.0-80.0
70.0,723.0,0.97,-3.05,9.8,-5.48,-0.15,-0.95,27.43,70.0-80.0
70.0,2633.0,-2.95,2.27,9.93,3.08,-0.44,0.23,27.42,70.0-80.0
70.0,1817.0,0.68,-3.07,9.85,-5.67,-0.44,0.23,27.42,70.0-80.0
70.0,2927.0,1.48,1.43,10.81,0.65,-7.15,2.64,27.43,70.0-80.0
70.0,2392.0,-0.81,-1.91,9.58,0.35,3.49,-1.33,27.42,70.0-80.0
70.0,1653.0,1.47,1.36,10.86,-0.1,-7.47,1.88,27.41,70.0-80.0
70.0,1447.0,-0.32,-1.92,9.75,0.35,2.51,-2.67,27.42,70.0-80.0
70.0,869.0,1.05,-0.28,8.97,-1.18,3.29,0.24,27.43,70.0-80.0
70.0,1703.0,-2.43,3.98,9.26,7.26,1.99,0.37,27.42,70.0-80.0
70.0,1346.0,1.46,-1.43,8.98,-2.49,2.8,-0.32,27.41,70.0-80.0
70.0,2405.0,-1.37,3.69,9.28,7.46,1.82,1.48,27.42,70.0-80.0
70.0,2224.0,-2.5,-2.02,9.09,-1.82,4.89,-1.48,27.43,70.0-80.0
70.0,2559.0,-0.69,2.14,10.18,-0.94,-2.5,2.87,27.41,70.0-80.0
70.0,2096.0,-2.89,-1.85,8.5,-0.37,6.71,-1.19,27.42,70.0-80.0
70.0,1456.0,-0.85,2.18,9.53,-0.4,1.15,2.59,27.42,70.0-80.0
70.0,1233.0,-2.32,2.08,10.24,2.73,-4.48,0.82,27.41,70.0-80.0
70.0,1424.0,0.67,-4.12,10.05,-7.99,-0.39,-2.69,27.42,70.0-80.0
70.0,2149.0,-3.11,3.61,9.68,4.8,-2.66,0.64,27.42,70.0-80.0
70.0,2174.0,-0.1,-3.82,9.89,-7.44,0.83,-3.52,27.43,70.0-80.0
70.0,2926.0,1.66,1.51,11.71,-1.1,-10.16,1.45,27.42,70.0-80.0
70.0,1737.0,0.13,-1.78,9.87,1.14,1.21,-1.79,27.41,70.0-80.0
70.0,1405.0,0.25,1.78,11.52,-2.39,-9.64,2.53,27.42,70.0-80.0
70.0,1126.0,-0.24,-0.88,10.41,0.88,-2.68,-0.14,27.42,70.0-80.0
70.0,1420.0,1.31,-4.01,9.69,-6.78,1.5,-0.81,27.42,70.0-80.0
70.0,2138.0,1.71,2.84,10.83,5.81,-4.02,3.1,27.42,70.0-80.0
70.0,1779.0,0.86,-4.45,10.01,-8.37,0.34,-2.43,27.42,70.0-80.0
70.0,2098.0,2.51,1.84,11.57,2.24,-8.8,1.88,27.43,70.0-80.0
70.0,1642.0,-0.85,-2.04,8.44,2.01,5.88,-3.13,27.42,70.0-80.0
70.0,199.0,1.11,-0.35,9.23,-1.53,5.67,-0.41,27.43,70.0-80.0
70.0,672.0,0.17,-1.86,9.75,1.25,0.98,-2.26,27.43,70.0-80.0
70.0,1569.0,1.62,-2.65,9.25,-4.06,3.87,-0.7,27.42,70.0-80.0
70.0,2608.0,-0.19,3.92,9.61,8.3,-0.65,3.71,27.41,70.0-80.0
70.0,1629.0,-3.01,-1.87,8.15,-0.25,8.14,-1.95,27.42,70.0-80.0
70.0,2927.0,1.73,2.77,10.94,5.4,-4.95,3.51,27.4,70.0-80.0
70.0,1349.0,-1.88,-1.84,7.76,1.83,7.77,-2.0,27.42,70.0-80.0
70.0,1088.0,0.32,0.88,9.28,-0.94,5.06,0.75,27.41,70.0-80.0
70.0,728.0,-3.09,4.78,9.08,7.56,-0.83,2.29,27.46,70.0-80.0
70.0,1427.0,1.36,-1.12,9.28,-2.46,5.24,-0.81,27.43,70.0-80.0
70.0,2544.0,-1.6,4.59,8.83,9.01,0.68,2.49,27.43,70.0-80.0
70.0,755.0,-2.87,-2.2,8.56,-2.11,6.93,-3.13,27.4,70.0-80.0
70.0,2128.0,-1.12,2.03,10.41,-1.65,-1.63,1.94,27.42,70.0-80.0
70.0,975.0,-2.79,-1.88,7.86,0.76,8.43,-2.06,27.4,70.0-80.0
70.0,434.0,-0.4,1.54,9.6,-1.04,3.43,1.95,27.41,70.0-80.0
70.0,1090.0,-3.32,4.39,9.32,6.17,-2.51,3.16,27.41,70.0-80.0
70.0,1149.0,-0.54,-3.79,9.68,-7.18,2.57,-3.14,27.41,70.0-80.0
70.0,2928.0,-2.4,4.87,8.74,8.51,0.04,3.1,27.39,70.0-80.0
70.0,1639.0,-2.4,-2.57,8.9,-3.71,5.73,-3.52,27.41,70.0-80.0
70.0,893.0,-0.82,2.06,10.84,-2.14,-4.52,1.24,27.42,70.0-80.0
70.0,1168.0,-1.3,1.16,10.24,2.42,-5.27,0.41,27.45,70.0-80.0
70.0,0.0,-0.8,1.75,9.9,-1.38,1.44,1.3,27.42,70.0-80.0
70.0,1221.0,-2.98,3.6,9.63,4.94,-3.61,2.44,27.42,70.0-80.0
70.0,1232.0,-0.28,-4.05,9.87,-7.89,1.98,-2.75,27.41,70.0-80.0
70.0,2299.0,1.56,1.55,11.73,-1.58,-11.09,2.88,27.41,70.0-80.0
70.0,1573.0,-1.74,-3.03,9.14,-5.18,4.46,-2.73,27.43,70.0-80.0
70.0,638.0,-0.39,1.98,11.2,-2.2,-6.58,2.03,27.41,70.0-80.0
70.0,0.0,-0.89,0.43,10.37,2.12,-4.46,-0.15,27.42,70.0-80.0
70.0,1627.0,0.8,-4.53,10.01,-8.28,1.29,-3.39,27.41,70.0-80.0
70.0,1182.0,-2.54,2.94,9.87,4.33,-4.45,1.25,27.41,70.0-80.0
70.0,925.0,-0.06,-4.22,9.95,-8.31,1.81,-3.65,27.44,70.0-80.0
70.0,2266.0,2.21,1.45,11.83,-0.89,-11.42,2.49,27.4,70.0-80.0
70.0,1040.0,0.0,-1.48,9.75,1.64,0.82,-1.04,27.42,70.0-80.0
70.0,78.0,0.09,1.82,11.45,-2.55,-8.46,2.47,27.41,70.0-80.0
70.0,602.0,-0.53,-0.09,10.48,1.72,-3.81,0.35,27.45,70.0-80.0
70.0,573.0,1.16,-4.63,9.85,-7.89,1.43,-2.43,27.43,70.0-80.0
70.0,1687.0,2.18,2.39,11.36,4.04,-7.27,2.67,27.41,70.0-80.0
70.0,1186.0,0.41,-4.53,10.21,-8.69,1.32,-3.62,27.43,70.0-80.0
70.0,1796.0,2.38,1.58,11.75,0.07,-11.18,1.94,27.41,70.0-80.0
70.0,1446.0,-0.02,-1.56,9.31,2.16,2.39,-1.94,27.44,70.0-80.0
70.0,0.0,1.48,-2.76,9.36,-4.57,4.22,-1.24,27.42,70.0-80.0
70.0,912.0,-0.34,-0.43,10.31,1.96,-2.68,-0.32,27.42,70.0-80.0
70.0,650.0,1.25,-4.39,9.89,-7.47,1.46,-1.95,27.42,70.0-80.0
70.0,1641.0,1.77,2.73,11.03,4.92,-5.85,3.37,27.42,70.0-80.0
70.0,947.0,-1.52,-1.96,7.97,1.84,7.07,-2.06,27.42,70.0-80.0
70.0,1035.0,2.74,1.65,11.7,0.82,-10.6,2.66,27.42,70.0-80.0
70.0,363.0,-0.24,-1.81,9.06,2.01,3.15,-1.98,27.45,70.0-80.0
70.0,829.0,1.5,-2.12,9.32,-3.84,4.84,-1.19,27.4,70.0-80.0
70.0,238.0,-0.67,4.25,9.25,8.75,-0.34,2.98,27.42,70.0-80.0
70.0,675.0,1.46,-4.16,9.69,-6.73,2.16,-2.44,27.41,70.0-80.0
70.0,1507.0,1.35,3.11,10.77,6.19,-4.25,3.05,27.41,70.0-80.0
70.0,848.0,-1.92,-1.9,7.92,1.7,7.59,-2.27,27.42,70.0-80.0
70.0,400.0,0.17,0.63,9.28,-1.38,5.09,0.99,27.42,70.0-80.0
70.0,0.0,-0.52,-1.86,8.8,2.38,4.39,-1.48,27.42,70.0-80.0
70.0,391.0,1.37,-1.56,9.32,-3.19,5.13,-0.35,27.42,70.0-80.0
70.0,1444.0,-1.2,4.57,8.98,8.86,-0.3,3.46,27.41,70.0-80.0
70.0,1218.0,-2.82,-2.06,8.33,-1.3,8.17,-3.1,27.42,70.0-80.0
70.0,1777.0,1.0,3.42,10.32,6.97,-3.06,2.9,27.41,70.0-80.0
70.0,1883.0,-2.32,-1.9,7.86,1.25,8.0,-2.98,27.44,70.0-80.0
70.0,654.0,0.02,0.96,9.43,-1.24,4.49,0.63,27.43,70.0-80.0
70.0,802.0,-2.99,4.84,9.08,7.43,-1.47,3.02,27.42,70.0-80.0
70.0,358.0,1.3,-1.01,9.2,-2.66,5.5,-0.23,27.42,70.0-80.0
70.0,1280.0,-1.62,4.71,8.84,9.0,0.3,3.74,27.41,70.0-80.0
70.0,320.0,-2.74,-2.26,8.46,-2.13,7.19,-2.7,27.42,70.0-80.0
70.0,1566.0,-0.88,1.85,10.5,-1.93,-1.72,1.82,27.42,70.0-80.0
70.0,1008.0,-2.56,-1.85,7.97,0.94,8.0,-2.56,27.43,70.0-80.0
70.0,0.0,-0.25,1.16,9.48,-1.39,3.76,0.81,27.42,70.0-80.0
70.0,1162.0,-3.01,4.65,9.32,6.83,-2.13,2.55,27.42,70.0-80.0
70.0,585.0,-1.08,-3.48,9.21,-6.41,3.67,-3.49,27.43,70.0-80.0
70.0,1456.0,-2.01,4.87,8.81,8.84,-0.02,3.25,27.42,70.0-80.0
70.0,1040.0,-2.48,-2.41,8.52,-2.93,6.89,-2.99,27.44,70.0-80.0
70.0,1445.0,-0.95,1.8,10.73,-2.42,-3.49,1.88,27.42,70.0-80.0
70.0,380.0,-1.63,1.94,10.16,3.29,-4.92,1.46,27.42,70.0-80.0
70.0,20.0,-0.72,1.36,9.59,-1.53,2.89,1.34,27.41,70.0-80.0
70.0,1425.0,-2.91,4.3,9.54,6.24,-3.04,2.76,27.42,70.0-80.0
70.0,547.0,-0.83,-3.71,9.24,-6.98,3.44,-3.31,27.41,70.0-80.0
70.0,983.0,1.0,1.69,11.78,-2.14,-10.09,2.06,27.43,70.0-80.0
70.0,1490.0,-2.33,-2.58,8.65,-3.5,6.54,-3.34,27.42,70.0-80.0
70.0,1101.0,-1.07,1.97,10.97,-2.31,-4.51,1.63,27.4,70.0-80.0
70.0,1071.0,-1.41,1.51,10.25,2.89,-5.06,0.9,27.41,70.0-80.0
70.0,384.0,0.31,-4.55,10.25,-9.08,0.47,-3.07,27.43,70.0-80.0
70.0,1810.0,-2.77,3.96,9.68,5.44,-3.59,2.52,27.42,70.0-80.0
70.0,975.0,-0.81,-3.85,9.47,-7.68,2.85,-3.1,27.41,70.0-80.0
70.0,1313.0,1.49,1.61,11.76,-2.02,-10.4,2.5,27.42,70.0-80.0
70.0,1264.0,-0.29,-0.93,10.16,1.6,-2.02,-0.66,27.44,70.0-80.0
70.0,180.0,-0.87,1.94,11.09,-2.49,-5.59,1.86,27.44,70.0-80.0
70.0,1048.0,-1.22,1.14,10.29,2.86,-4.62,0.49,27.44,70.0-80.0
70.0,126.0,0.37,-4.63,10.24,-8.9,0.79,-3.42,27.42,70.0-80.0
70.0,1525.0,2.77,1.9,11.62,1.84,-9.38,2.5,27.42,70.0-80.0
70.0,775.0,-0.62,-3.95,9.51,-7.85,2.51,-3.42,27.42,70.0-80.0
70.0,2035.0,1.76,1.6,11.77,-1.7,-10.8,2.61,27.42,70.0-80.0
70.0,811.0,-0.22,-1.03,10.05,1.67,-1.59,-0.58,27.41,70.0-80.0
70.0,497.0,1.56,-4.07,9.87,-6.75,2.42,-1.95,27.42,70.0-80.0
70.0,1482.0,-1.09,0.87,10.29,2.51,-4.92,0.79,27.42,70.0-80.0
70.0,813.0,0.54,-4.63,10.3,-8.93,0.54,-3.1,27.41,70.0-80.0
70.0,1584.0,2.59,1.94,11.49,2.18,-8.72,2.49,27.41,70.0-80.0
70.0,1108.0,-0.58,-1.86,8.74,2.18,4.04,-2.14,27.42,70.0-80.0
70.0,816.0,1.96,1.55,11.8,-1.35,-10.81,2.15,27.39,70.0-80.0
70.0,0.0,-0.25,-1.17,9.85,1.84,-0.76,-1.14,27.42,70.0-80.0
70.0,511.0,1.63,-3.89,9.8,-6.2,2.85,-2.04,27.42,70.0-80.0
70.0,1469.0,-0.98,0.58,10.24,2.42,-4.57,0.58,27.42,70.0-80.0
70.0,642.0,0.76,-4.57,10.38,-8.58,0.5,-2.69,27.41,70.0-80.0
70.0,2285.0,2.5,2.19,11.41,2.76,-8.13,3.11,27.41,70.0-80.0
70.0,1510.0,-0.74,-1.8,8.51,2.16,4.87,-1.79,27.42,70.0-80.0
70.0,826.0,2.23,1.57,11.76,-1.04,-10.6,2.44,27.41,70.0-80.0
70.0,166.0,-0.37,-1.22,9.73,1.9,-0.04,-1.36,27.39,70.0-80.0
70.0,1291.0,1.71,-3.72,9.77,-6.05,3.17,-2.23,27.41,70.0-80.0
70.0,2259.0,0.52,3.63,10.06,7.26,-2.54,3.16,27.41,70.0-80.0
70.0,1443.0,0.77,-4.62,10.32,-8.52,0.59,-3.01,27.42,70.0-80.0
70.0,1580.0,2.33,2.27,11.28,3.32,-7.59,3.02,27.41,70.0-80.0
70.0,645.0,-0.79,-1.91,8.49,2.09,5.04,-1.74,27.41,70.0-80.0
70.0,1114.0,1.16,-1.03,9.26,-2.63,5.88,-0.24,27.42,70.0-80.0
70.0,1514.0,-0.22,-1.29,9.55,1.95,0.72,-0.98,27.4,70.0-80.0
70.0,739.0,1.68,-3.56,9.72,-5.82,3.49,-1.79,27.41,70.0-80.0
70.0,1968.0,0.24,3.79,10.0,7.62,-2.36,3.27,27.41,70.0-80.0
70.0,1264.0,-2.28,-1.82,8.04,1.14,8.6,-2.78,27.39,70.0-80.0
70.0,755.0,2.26,2.45,11.2,3.67,-7.33,2.73,27.41,70.0-80.0
70.0,15.0,-0.93,-1.85,8.34,2.19,5.71,-2.2,27.4,70.0-80.0
70.0,828.0,1.13,-0.99,9.23,-2.71,5.9,-0.4,27.42,70.0-80.0
70.0,1052.0,-1.52,4.69,8.98,8.75,-0.89,3.56,27.42,70.0-80.0
70.0,2.0,1.61,-3.47,9.62,-5.61,3.56,-1.6,27.42,70.0-80.0
70.0,1692.0,0.41,3.71,10.0,7.53,-2.53,3.51,27.42,70.0-80.0
70.0,1245.0,-2.28,-1.86,8.08,0.99,8.52,-2.56,27.41,70.0-80.0
70.0,614.0,-0.46,1.09,9.24,-1.42,3.61,1.01,27.43,70.0-80.0
70.0,497.0,-0.79,-1.86,8.35,2.31,5.7,-2.09,27.41,70.0-80.0
70.0,626.0,1.08,-0.77,9.25,-2.48,5.85,-0.38,27.42,70.0-80.0
70.0,2102.0,-1.57,4.7,8.97,8.63,-1.08,3.3,27.41,70.0-80.0
70.0,1155.0,-2.76,-2.26,8.44,-2.46,7.5,-3.11,27.42,70.0-80.0
70.0,1779.0,0.1,3.85,9.84,7.78,-2.17,3.3,27.41,70.0-80.0
70.0,1607.0,-2.45,-1.82,8.11,0.8,8.75,-2.61,27.45,70.0-80.0
70.0,363.0,-0.43,1.21,9.44,-1.59,3.12,1.27,27.42,70.0-80.0
70.0,183.0,-2.7,4.38,9.45,6.45,-2.77,2.91,27.43,70.0-80.0
70.0,927.0,0.85,-0.44,9.16,-2.28,5.93,0.05,27.4,70.0-80.0
70.0,1967.0,-1.71,4.75,8.95,8.78,-0.83,3.39,27.42,70.0-80.0
70.0,1347.0,-2.59,-2.45,8.68,-3.13,6.42,-3.25,27.41,70.0-80.0
70.0,1119.0,-0.97,2.03,10.76,-1.97,-3.04,1.72,27.41,70.0-80.0
70.0,90.0,-2.68,-1.76,7.99,0.73,9.13,-2.79,27.42,70.0-80.0
70.0,307.0,-0.57,1.37,9.46,-1.56,2.46,1.21,27.4,70.0-80.0
70.0,706.0,-2.57,4.25,9.55,6.16,-3.06,2.69,27.42,70.0-80.0
70.0,534.0,-1.19,-3.76,9.49,-7.21,2.6,-3.36,27.4,70.0-80.0
70.0,2580.0,-1.79,4.72,9.08,8.52,-0.85,3.51,27.4,70.0-80.0
70.0,1367.0,-2.62,-2.53,8.58,-3.47,6.51,-3.04,27.4,70.0-80.0
70.0,929.0,-0.87,2.02,10.82,-2.17,-3.41,1.89,27.41,70.0-80.0
70.0,594.0,-1.91,1.91,9.9,3.52,-4.45,1.3,27.41,70.0-80.0
70.0,656.0,-0.67,1.49,9.62,-1.52,2.25,1.21,27.42,70.0-80.0
70.0,1556.0,-2.6,4.16,9.38,6.24,-2.72,2.53,27.4,70.0-80.0
70.0,913.0,-1.02,-3.92,9.53,-7.54,2.16,-3.56,27.42,70.0-80.0
70.0,1951.0,0.86,1.82,11.68,-1.76,-8.77,2.15,27.4,70.0-80.0
70.0,1552.0,-2.61,-2.67,8.58,-3.74,6.22,-3.17,27.43,70.0-80.0
70.0,0.0,-0.6,2.08,10.95,-2.17,-3.78,2.01,27.42,70.0-80.0
70.0,0.0,-1.96,1.8,9.85,3.5,-4.11,1.37,27.43,70.0-80.0
70.0,1108.0,0.53,-4.69,10.55,-9.08,0.24,-3.13,27.41,70.0-80.0
70.0,1893.0,-2.58,4.01,9.44,6.1,-2.57,2.55,27.42,70.0-80.0
70.0,505.0,-0.92,-4.0,9.72,-7.8,1.66,-3.52,27.42,70.0-80.0
70.0,1426.0,1.17,1.81,11.69,-1.59,-8.6,2.14,27.41,70.0-80.0
70.0,1088.0,-0.76,-0.36,9.91,2.09,-2.3,-0.37,27.41,70.0-80.0
70.0,650.0,-0.52,2.06,11.05,-2.34,-4.19,1.83,27.39,70.0-80.0
70.0,1018.0,-1.8,1.59,9.82,3.24,-4.39,1.16,27.42,70.0-80.0
70.0,1611.0,0.65,-4.76,10.63,-9.07,0.24,-3.3,27.39,70.0-80.0
70.0,2271.0,2.36,1.82,11.4,1.37,-9.29,2.59,27.42,70.0-80.0
70.0,1418.0,-0.94,-4.0,9.63,-7.92,1.44,-3.43,27.41,70.0-80.0
70.0,1212.0,1.26,1.74,11.76,-1.62,-9.01,2.33,27.44,70.0-80.0
70.0,170.0,-0.66,-0.49,10.04,2.05,-2.19,-0.29,27.43,70.0-80.0
70.0,866.0,1.57,-4.41,9.94,-7.25,2.16,-2.33,27.42,70.0-80.0
70.0,1421.0,-1.8,1.64,9.89,3.29,-4.27,1.11,27.43,70.0-80.0
70.0,1582.0,0.52,-4.62,10.49,-8.96,0.62,-3.33,27.42,70.0-80.0
70.0,2128.0,2.39,1.84,11.44,1.37,-9.42,2.59,27.41,70.0-80.0
70.0,1410.0,-0.21,-1.55,9.2,2.28,2.75,-1.71,27.41,70.0-80.0
70.0,667.0,1.24,1.68,11.68,-1.65,-8.96,2.15,27.41,70.0-80.0
70.0,207.0,-0.69,-0.46,10.03,2.13,-1.93,-0.35,27.42,70.0-80.0
70.0,1033.0,1.67,-4.52,9.89,-7.28,2.49,-2.49,27.42,70.0-80.0
70.0,2083.0,1.26,3.05,10.9,5.49,-5.79,3.2,27.43,70.0-80.0
70.0,1606.0,0.6,-4.77,10.55,-9.16,0.4,-3.31,27.43,70.0-80.0
70.0,2455.0,2.36,1.9,11.47,1.37,-9.32,2.56,27.42,70.0-80.0
70.0,1083.0,-0.15,-1.49,9.23,2.34,2.77,-1.54,27.43,70.0-80.0
70.0,592.0,1.47,-2.68,9.13,-4.64,5.2,-1.46,27.41,70.0-80.0
70.0,1281.0,-0.72,-0.26,9.94,2.42,-2.65,-0.18,27.43,70.0-80.0
70.0,124.0,1.68,-4.67,10.23,-7.85,1.61,-2.67,27.41,70.0-80.0
70.0,2398.0,1.31,2.92,10.94,4.92,-6.02,3.05,27.42,70.0-80.0
70.0,608.0,-1.13,-1.87,8.32,2.16,7.33,-2.24,27.4,70.0-80.0
70.0,919.0,2.34,1.74,11.5,0.77,-9.39,2.64,27.43,70.0-80.0
70.0,115.0,-0.31,-1.33,9.24,2.47,2.3,-1.33,27.42,70.0-80.0
70.0,666.0,1.53,-3.03,9.41,-4.93,4.65,-1.59,27.42,70.0-80.0
70.0,1942.0,-0.11,4.0,9.9,7.99,-2.89,3.52,27.43,70.0-80.0
70.0,1166.0,1.47,-4.71,10.31,-7.95,1.53,-2.9,27.42,70.0-80.0
70.0,1965.0,1.51,2.76,10.97,4.6,-6.62,2.98,27.43,70.0-80.0
70.0,1739.0,-0.81,-1.83,8.35,2.33,6.66,-2.29,27.42,70.0-80.0
70.0,1216.0,0.71,-0.6,8.8,-2.74,5.56,-0.2,27.42,70.0-80.0
70.0,787.0,-0.31,-1.14,9.45,2.33,1.27,-1.13,27.44,70.0-80.0
70.0,1014.0,1.62,-3.38,9.45,-5.54,4.68,-1.79,27.43,70.0-80.0
70.0,2864.0,0.11,3.86,10.01,7.61,-3.15,3.56,27.41,70.0-80.0
70.0,1313.0,-2.23,-1.93,7.92,0.99,8.84,-2.79,27.43,70.0-80.0
70.0,1363.0,1.85,2.52,11.19,3.81,-7.38,2.9,27.42,70.0-80.0
70.0,142.0,-0.62,-1.77,8.44,2.54,5.96,-2.11,27.43,70.0-80.0
70.0,570.0,0.8,-1.03,8.76,-3.09,5.96,-0.61,27.4,70.0-80.0
70.0,2275.0,-1.0,4.56,9.33,8.77,-1.58,3.66,27.41,70.0-80.0
70.0,828.0,1.61,-3.81,9.57,-6.12,3.67,-2.08,27.41,70.0-80.0
70.0,2074.0,0.61,3.65,10.42,7.03,-4.22,3.51,27.4,70.0-80.0
70.0,1191.0,-1.96,-1.9,8.04,1.43,8.6,-2.59,27.42,70.0-80.0
70.0,0.0,-0.12,0.72,8.97,-2.0,4.23,0.7,27.42,70.0-80.0
70.0,182.0,-0.39,-1.67,8.61,2.54,5.13,-1.77,27.43,70.0-80.0
70.0,1811.0,1.13,-1.68,9.0,-3.71,5.58,-0.78,27.42,70.0-80.0
70.0,2441.0,-0.72,4.39,9.39,8.62,-1.72,3.56,27.44,70.0-80.0
70.0,1655.0,-2.95,-2.1,8.17,-1.16,8.54,-3.17,27.43,70.0-80.0
70.0,2352.0,0.84,3.36,10.8,6.22,-4.98,3.27,27.42,70.0-80.0
70.0,1922.0,-1.64,-1.86,8.02,1.89,8.4,-2.61,27.4,70.0-80.0
70.0,1563.0,0.16,0.31,8.91,-2.19,4.62,0.4,27.43,70.0-80.0
70.0,578.0,-1.68,4.75,9.17,8.13,-1.78,3.46,27.4,70.0-80.0
70.0,762.0,1.26,-2.28,9.16,-4.31,5.12,-1.13,27.44,70.0-80.0
70.0,2928.0,-0.37,4.21,9.68,8.34,-2.5,3.77,27.41,70.0-80.0
70.0,1050.0,-2.89,-1.91,8.09,-0.25,8.95,-2.93,27.42,70.0-80.0
70.0,591.0,-0.7,1.5,9.72,-2.0,1.21,1.31,27.4,70.0-80.0
70.0,815.0,-1.19,-1.78,8.12,2.3,7.74,-2.32,27.42,70.0-80.0
70.0,944.0,0.24,-0.16,8.91,-2.57,5.47,-0.12,27.4,70.0-80.0
70.0,1364.0,-1.55,4.77,9.14,8.48,-1.37,3.36,27.43,70.0-80.0
