Speed,Voice,Acceleration X,Acceleration Y,Acceleration Z,Gyro X,Gyro Y,Gyro Z,Temperature,Speed_Range
70.0,1744.0,1.57,-0.44,10.03,-0.62,-0.62,0.12,28.12,70.0-80.0
70.0,1557.0,-0.41,-0.8,9.92,-1.55,0.1,-0.4,28.09,70.0-80.0
70.0,1346.0,-0.06,-0.05,9.32,-0.07,1.27,0.03,28.11,70.0-80.0
70.0,1821.0,-1.21,-0.26,9.51,-0.81,2.85,-0.26,28.13,70.0-80.0
70.0,1626.0,1.24,-0.22,9.99,-1.09,-1.84,1.92,28.11,70.0-80.0
70.0,1707.0,-1.25,-0.59,9.5,-1.16,1.21,0.79,28.11,70.0-80.0
70.0,1783.0,1.29,-0.57,10.1,-1.38,-1.52,1.53,28.1,70.0-80.0
70.0,1623.0,-0.54,0.21,10.28,0.1,0.47,-0.52,28.1,70.0-80.0
70.0,1194.0,-0.06,0.23,9.19,0.24,1.17,0.08,28.11,70.0-80.0
70.0,1111.0,-0.47,0.02,10.23,0.22,0.66,-2.03,28.1,70.0-80.0
70.0,675.0,0.1,0.06,9.47,0.01,-0.15,-0.63,28.1,70.0-80.0
70.0,794.0,-0.46,1.21,9.75,1.25,-0.73,-0.66,28.09,70.0-80.0
70.0,485.0,0.22,-0.61,10.15,-1.04,-1.0,-0.17,28.11,70.0-80.0
70.0,291.0,0.15,1.2,9.97,1.05,-0.94,0.99,28.08,70.0-80.0
70.0,952.0,-0.97,-0.53,9.67,-1.07,-1.46,0.93,28.1,70.0-80.0
70.0,922.0,2.26,-0.93,10.95,-1.82,-1.38,1.51,28.1,70.0-80.0
70.0,1645.0,-0.36,0.3,10.15,0.38,-1.78,0.2,28.11,70.0-80.0
70.0,1031.0,2.9,-1.09,11.1,-2.71,-3.44,0.5,28.1,70.0-80.0
70.0,1082.0,-0.98,0.77,9.86,0.35,-2.45,-0.76,28.09,70.0-80.0
70.0,157.0,1.71,-0.69,10.73,0.1,2.17,-1.33,28.09,70.0-80.0
70.0,224.0,-0.42,-0.32,8.98,-0.23,0.07,-0.82,28.09,70.0-80.0
70.0,1314.0,1.76,-1.12,11.04,-1.55,-2.68,-1.14,28.1,70.0-80.0
70.0,1680.0,1.07,-1.31,10.62,-1.94,-0.33,0.15,28.1,70.0-80.0
70.0,1343.0,-0.07,0.62,9.97,1.37,-0.18,0.38,28.09,70.0-80.0
70.0,27.0,0.44,-0.81,10.38,0.59,3.67,1.08,28.11,70.0-80.0
70.0,14.0,-0.34,1.18,9.98,-0.05,-2.62,1.54,28.12,70.0-80.0
70.0,801.0,1.14,-0.88,10.62,-0.98,-1.4,0.21,28.11,70.0-80.0
70.0,1347.0,1.75,-1.27,11.25,-2.31,-2.22,0.27,28.11,70.0-80.0
70.0,1442.0,-0.71,1.07,9.8,0.9,-1.38,-0.73,28.1,70.0-80.0
70.0,61.0,0.8,-1.09,10.21,-2.66,-2.22,-0.72,28.09,70.0-80.0
70.0,335.0,0.55,1.02,9.75,-0.04,-1.41,-0.55,28.1,70.0-80.0
70.0,1325.0,-2.26,-0.12,9.66,-0.31,-1.06,-1.3,28.1,70.0-80.0
70.0,1458.0,1.5,-1.09,10.62,-3.06,-3.78,0.93,28.1,70.0-80.0
70.0,1077.0,-0.56,1.24,9.23,3.02,3.18,0.24,28.09,70.0-80.0
70.0,115.0,-1.81,-0.4,8.4,-0.1,4.04,1.19,28.11,70.0-80.0
70.0,1147.0,-0.66,0.37,9.18,-0.51,0.19,1.71,28.13,70.0-80.0
70.0,1295.0,-0.35,1.09,9.37,2.67,2.28,-0.18,28.09,70.0-80.0
70.0,1233.0,1.76,-1.43,10.68,-2.16,-1.12,0.05,28.1,70.0-80.0
70.0,578.0,-1.08,1.54,9.4,2.13,-0.47,-0.47,28.11,70.0-80.0
70.0,1525.0,0.98,-0.97,10.43,-0.31,0.72,-1.85,28.1,70.0-80.0
70.0,1447.0,2.11,-1.63,11.2,-2.35,-1.32,-0.72,28.1,70.0-80.0
70.0,1795.0,-2.37,0.55,9.21,0.74,0.19,-1.33,28.11,70.0-80.0
70.0,0.0,-0.01,-1.1,9.87,-2.58,-2.01,0.6,28.12,70.0-80.0
70.0,923.0,1.1,0.47,10.11,-0.25,0.19,1.88,28.08,70.0-80.0
70.0,2025.0,-0.99,-0.61,9.55,0.61,4.65,0.7,28.12,70.0-80.0
70.0,1879.0,0.65,-0.78,9.14,-2.11,-0.97,1.22,28.08,70.0-80.0
70.0,523.0,0.04,1.41,10.13,2.57,-0.36,0.53,28.1,70.0-80.0
70.0,1089.0,0.52,-0.85,10.39,0.13,2.28,-1.02,28.11,70.0-80.0
70.0,2213.0,0.05,1.61,9.31,0.47,-0.92,0.18,28.09,70.0-80.0
70.0,2055.0,-1.81,0.55,9.65,1.05,-0.66,-1.77,28.11,70.0-80.0
70.0,1045.0,0.33,-1.34,10.0,-2.51,-0.76,-0.81,28.1,70.0-80.0
70.0,1466.0,0.22,0.63,9.66,-0.36,-0.63,0.78,28.1,70.0-80.0
70.0,2558.0,-0.49,-1.24,9.9,-0.26,2.77,-0.43,28.09,70.0-80.0
70.0,1887.0,1.37,-0.91,9.97,-2.13,-1.5,1.34,28.1,70.0-80.0
70.0,690.0,-0.46,1.63,9.63,2.36,0.13,1.36,28.11,70.0-80.0
70.0,2341.0,0.44,-0.71,10.22,0.15,0.39,0.05,28.11,70.0-80.0
70.0,2185.0,0.41,0.87,9.72,-0.48,-1.38,1.08,28.11,70.0-80.0
70.0,2499.0,-1.73,1.15,9.4,2.04,1.35,-1.01,28.07,70.0-80.0
70.0,1319.0,-0.51,-1.16,9.29,-2.07,0.88,-0.95,28.09,70.0-80.0
70.0,1881.0,-0.17,0.27,9.58,-0.77,-0.66,-0.09,28.09,70.0-80.0
70.0,2705.0,0.35,-1.04,10.37,0.07,1.2,-1.34,28.1,70.0-80.0
70.0,1895.0,1.38,-1.46,10.31,-2.52,-1.05,0.24,28.11,70.0-80.0
70.0,1557.0,-0.73,1.63,9.51,1.38,-1.53,1.1,28.09,70.0-80.0
70.0,2320.0,0.16,-0.54,10.22,0.07,-0.51,0.2,28.11,70.0-80.0
70.0,2503.0,0.0,0.57,9.68,-0.48,-0.18,1.79,28.09,70.0-80.0
70.0,2303.0,-0.8,1.68,9.12,2.8,1.67,0.14,28.11,70.0-80.0
70.0,1232.0,-1.05,-1.02,9.23,-1.01,2.49,-0.38,28.12,70.0-80.0
70.0,2091.0,0.28,-0.02,9.52,-1.24,-0.44,0.11,28.11,70.0-80.0
70.0,2134.0,0.57,-0.57,10.36,0.38,0.25,-1.6,28.09,70.0-80.0
70.0,1865.0,1.0,-1.68,10.84,-3.03,-1.79,-0.58,28.09,70.0-80.0
70.0,1344.0,0.7,1.25,10.05,0.33,-2.24,0.26,28.12,70.0-80.0
70.0,2258.0,-1.72,0.1,9.59,0.86,-0.07,-0.67,28.11,70.0-80.0
70.0,1764.0,0.03,0.12,9.61,-1.06,-0.48,1.19,28.11,70.0-80.0
70.0,1844.0,-0.02,1.61,9.51,3.23,1.58,0.72,28.1,70.0-80.0
70.0,1661.0,-0.65,-1.06,9.68,-0.23,2.52,0.26,28.11,70.0-80.0
70.0,1920.0,1.64,-0.57,9.78,-1.79,-1.23,0.98,28.11,70.0-80.0
70.0,2559.0,-1.13,-0.07,9.83,0.82,-0.02,-0.76,28.12,70.0-80.0
70.0,1108.0,0.4,-1.52,10.26,-3.29,-1.78,-0.44,28.1,70.0-80.0
70.0,1481.0,0.49,1.06,9.64,-0.25,-1.38,-0.03,28.1,70.0-80.0
70.0,1818.0,-1.73,1.09,9.58,2.21,1.09,-1.36,28.1,70.0-80.0
70.0,1597.0,1.15,-0.55,9.75,-1.99,-1.41,0.05,28.1,70.0-80.0
70.0,694.0,-0.78,1.64,9.59,3.0,0.48,0.35,28.09,70.0-80.0
70.0,1735.0,0.3,-1.21,10.45,-0.23,1.3,-0.08,28.09,70.0-80.0
70.0,2032.0,1.42,-1.47,10.32,-2.63,-1.49,1.13,28.09,70.0-80.0
70.0,1818.0,-2.23,0.8,9.31,1.54,0.72,0.09,28.09,70.0-80.0
70.0,809.0,0.12,-1.36,9.72,-2.52,0.31,0.38,28.09,70.0-80.0
70.0,1722.0,0.2,0.43,9.75,-0.68,-0.25,0.63,28.1,70.0-80.0
70.0,2088.0,-0.7,1.82,9.22,3.37,1.61,-1.07,28.12,70.0-80.0
70.0,1485.0,1.42,-1.34,10.22,-2.63,-2.05,-0.47,28.11,70.0-80.0
70.0,537.0,-0.58,1.6,9.68,2.01,-0.92,-0.12,28.1,70.0-80.0
70.0,1916.0,0.12,-0.59,9.99,0.3,0.16,-1.02,28.1,70.0-80.0
70.0,1472.0,0.87,-1.6,10.79,-3.07,-1.78,0.53,28.1,70.0-80.0
70.0,1330.0,-0.86,1.63,9.36,3.08,1.18,0.21,28.12,70.0-80.0
70.0,966.0,-1.04,-1.07,9.13,-1.07,3.09,0.43,28.12,70.0-80.0
70.0,1469.0,0.46,-0.07,9.48,-1.3,-0.51,1.33,28.11,70.0-80.0
70.0,1835.0,0.02,1.56,9.73,3.4,1.43,0.21,28.1,70.0-80.0
70.0,779.0,1.0,-1.8,10.85,-3.16,-1.21,-0.12,28.1,70.0-80.0
70.0,749.0,-0.08,1.57,9.64,0.53,-2.08,0.37,28.1,70.0-80.0
70.0,1266.0,-1.55,0.24,9.64,1.15,-0.04,-1.37,28.1,70.0-80.0
70.0,1311.0,0.48,-1.68,10.21,-3.13,-0.71,-0.72,28.1,70.0-80.0
70.0,95.0,-0.14,1.43,9.38,3.21,1.82,-0.4,28.1,70.0-80.0
70.0,1200.0,-0.92,-1.04,9.75,-0.07,2.42,-0.29,28.09,70.0-80.0
70.0,1438.0,1.33,-0.85,9.66,-2.19,-1.34,1.22,28.12,70.0-80.0
70.0,795.0,-0.12,1.45,10.02,2.28,-0.73,1.08,28.08,70.0-80.0
70.0,839.0,0.62,-1.67,10.21,-3.26,-0.85,0.41,28.11,70.0-80.0
70.0,774.0,-0.07,1.37,9.3,0.19,-0.34,1.07,28.1,70.0-80.0
70.0,1652.0,-1.91,1.56,9.04,2.76,1.59,-0.75,28.09,70.0-80.0
70.0,290.0,0.03,-1.64,9.73,-1.91,1.7,-1.34,28.12,70.0-80.0
70.0,322.0,-0.16,1.46,9.9,2.7,0.1,-0.46,28.11,70.0-80.0
70.0,1227.0,-0.4,-0.83,9.87,-0.13,0.21,-1.42,28.09,70.0-80.0
70.0,975.0,0.72,-1.69,10.49,-3.35,-1.66,0.27,28.1,70.0-80.0
70.0,0.0,0.26,1.53,9.87,1.22,-0.82,1.28,28.1,70.0-80.0
70.0,1162.0,-0.54,-1.38,9.45,-1.74,1.99,0.15,28.1,70.0-80.0
70.0,1479.0,0.58,-0.05,9.62,-1.53,-1.03,1.48,28.09,70.0-80.0
70.0,718.0,0.46,1.81,9.86,3.84,1.17,0.64,28.11,70.0-80.0
70.0,0.0,-0.37,-1.34,10.12,-0.22,2.78,-0.81,28.12,70.0-80.0
70.0,1215.0,-0.02,2.06,9.42,1.19,-1.7,0.79,28.12,70.0-80.0
70.0,1116.0,-1.93,0.21,9.47,1.25,0.68,-1.48,28.1,70.0-80.0
70.0,0.0,-0.04,-1.72,9.83,-2.92,-0.28,-0.89,28.12,70.0-80.0
70.0,416.0,0.55,0.91,9.58,-0.07,0.31,0.75,28.11,70.0-80.0
70.0,1008.0,0.05,-1.27,10.33,-0.11,1.67,-0.69,28.11,70.0-80.0
70.0,928.0,0.97,-1.7,9.95,-3.59,-1.35,0.55,28.08,70.0-80.0
70.0,355.0,-0.63,2.16,9.65,2.51,-2.14,1.57,28.09,70.0-80.0
70.0,1301.0,0.03,-0.58,10.24,0.39,0.02,-0.0,28.11,70.0-80.0
70.0,1194.0,0.94,0.75,9.89,-0.39,0.16,1.57,28.1,70.0-80.0
70.0,979.0,-0.46,1.73,9.36,3.24,1.33,-0.41,28.09,70.0-80.0
70.0,528.0,-1.53,-0.99,9.35,-0.52,2.49,-1.25,28.13,70.0-80.0
70.0,1433.0,1.71,-0.97,10.13,-2.87,-2.72,-0.09,28.1,70.0-80.0
70.0,1673.0,-1.2,-0.33,9.68,1.05,1.41,-1.42,28.09,70.0-80.0
70.0,494.0,0.31,-2.05,10.15,-3.62,-0.62,-0.75,28.11,70.0-80.0
70.0,711.0,-0.38,1.65,8.87,0.82,1.24,1.19,28.1,70.0-80.0
70.0,1569.0,-1.75,1.64,8.86,3.32,2.52,0.08,28.09,70.0-80.0
70.0,1278.0,1.53,-1.58,10.02,-3.51,-2.74,1.08,28.1,70.0-80.0
70.0,470.0,0.25,1.85,10.28,2.6,-2.14,1.37,28.1,70.0-80.0
70.0,1450.0,-0.03,-0.36,10.01,0.65,0.5,-0.46,28.1,70.0-80.0
70.0,1867.0,0.06,-2.03,10.36,-4.35,-1.98,-0.38,28.12,70.0-80.0
70.0,442.0,-0.54,2.05,9.24,3.78,1.01,-0.52,28.09,70.0-80.0
70.0,1487.0,-0.5,-1.58,9.79,-1.13,2.31,-1.51,28.1,70.0-80.0
70.0,1773.0,1.42,-0.79,9.91,-2.64,-1.9,0.08,28.09,70.0-80.0
70.0,1379.0,-0.68,2.16,9.43,3.67,0.34,0.46,28.09,70.0-80.0
70.0,539.0,0.06,-1.74,10.22,-3.64,-1.37,0.17,28.07,70.0-80.0
70.0,1846.0,0.88,0.92,9.89,-0.58,-1.05,1.5,28.09,70.0-80.0
70.0,1783.0,-1.47,1.56,9.33,3.14,1.87,0.21,28.09,70.0-80.0
70.0,688.0,-0.95,-1.43,9.2,-1.64,2.75,-0.06,28.09,70.0-80.0
70.0,1301.0,-0.39,2.35,9.81,3.12,-1.35,1.13,28.1,70.0-80.0
70.0,2107.0,0.07,-1.1,10.32,-0.08,-0.44,-1.08,28.11,70.0-80.0
70.0,1561.0,0.94,-2.0,10.82,-3.84,-1.84,-0.55,28.1,70.0-80.0
70.0,1350.0,0.21,1.96,9.34,1.14,-1.14,0.6,28.1,70.0-80.0
70.0,2156.0,-1.03,-1.64,9.22,-1.58,2.77,-1.21,28.08,70.0-80.0
70.0,2222.0,1.03,-0.44,9.85,-2.2,-1.32,0.35,28.1,70.0-80.0
70.0,1708.0,-0.09,2.1,9.75,3.96,0.21,0.82,28.08,70.0-80.0
70.0,1863.0,0.29,-1.49,10.59,-0.37,0.57,-0.4,28.1,70.0-80.0
70.0,2377.0,0.35,1.66,9.53,0.32,-1.24,1.59,28.1,70.0-80.0
70.0,2277.0,-2.16,1.28,9.26,2.77,1.98,-0.02,28.08,70.0-80.0
70.0,1010.0,-0.11,-1.85,9.57,-2.84,1.14,-0.38,28.1,70.0-80.0
70.0,1275.0,-0.27,0.56,9.39,-0.6,0.14,0.63,28.09,70.0-80.0
70.0,2085.0,0.35,-1.15,10.48,0.22,0.37,-1.27,28.1,70.0-80.0
70.0,2065.0,1.38,-1.78,10.6,-3.56,-2.08,-0.31,28.09,70.0-80.0
70.0,1200.0,0.12,1.76,9.85,1.52,-1.96,0.44,28.1,70.0-80.0
70.0,2462.0,-0.76,-0.35,9.88,0.73,0.01,-0.89,28.1,70.0-80.0
70.0,2323.0,-0.13,0.27,9.66,-1.09,-0.86,1.05,28.1,70.0-80.0
70.0,2345.0,-0.22,1.94,9.26,3.7,2.07,0.46,28.09,70.0-80.0
70.0,1232.0,-0.81,-1.28,9.62,-0.55,2.83,-0.17,28.09,70.0-80.0
70.0,2400.0,1.35,-0.52,9.69,-2.08,-1.12,0.89,28.1,70.0-80.0
70.0,2250.0,-0.56,-0.31,10.15,0.62,-0.33,-0.64,28.1,70.0-80.0
70.0,1303.0,0.3,-1.68,10.32,-3.47,-1.12,-0.27,28.08,70.0-80.0
70.0,1701.0,0.47,1.34,9.56,0.13,-1.32,0.52,28.11,70.0-80.0
70.0,2087.0,-1.81,1.18,9.44,2.6,1.56,-0.92,28.12,70.0-80.0
70.0,1840.0,1.5,-0.54,9.76,-1.85,-1.44,0.24,28.09,70.0-80.0
70.0,887.0,-0.57,1.77,9.67,3.34,0.63,0.32,28.1,70.0-80.0
70.0,2062.0,0.17,-1.23,10.36,-0.07,0.85,-0.66,28.09,70.0-80.0
70.0,2427.0,1.09,-1.66,10.48,-3.35,-1.58,0.67,28.1,70.0-80.0
70.0,2461.0,-1.76,1.11,9.51,2.22,0.86,-0.02,28.1,70.0-80.0
70.0,1244.0,-0.25,-1.41,9.58,-2.45,0.97,-0.0,28.09,70.0-80.0
70.0,2189.0,0.28,0.34,9.86,-0.74,-0.62,0.92,28.09,70.0-80.0
70.0,2170.0,-0.53,1.9,9.16,3.67,2.13,-0.44,28.08,70.0-80.0
70.0,1309.0,0.87,-1.8,10.42,-3.85,-2.17,-0.32,28.11,70.0-80.0
70.0,785.0,0.09,1.85,9.8,1.66,-1.58,0.49,28.12,70.0-80.0
70.0,1779.0,-0.83,-0.37,9.95,0.54,-0.04,-0.98,28.1,70.0-80.0
70.0,1936.0,0.88,-1.87,10.59,-3.74,-1.85,-0.02,28.1,70.0-80.0
70.0,717.0,-0.36,1.65,9.31,3.57,1.99,0.06,28.1,70.0-80.0
70.0,963.0,-1.47,-1.22,9.26,-0.54,2.56,-0.23,28.09,70.0-80.0
70.0,2064.0,1.42,-0.58,9.66,-1.93,-1.47,1.1,28.09,70.0-80.0
70.0,1994.0,-0.01,1.65,9.82,3.29,0.98,0.43,28.11,70.0-80.0
70.0,708.0,0.41,-1.8,10.41,-3.62,-1.47,-0.11,28.11,70.0-80.0
70.0,1120.0,0.06,1.52,9.3,0.12,-0.89,0.63,28.09,70.0-80.0
70.0,1498.0,-1.6,1.24,9.54,2.47,0.62,-0.82,28.08,70.0-80.0
70.0,1165.0,0.25,-1.61,9.78,-2.4,0.83,-0.75,28.1,70.0-80.0
70.0,404.0,-0.51,1.72,9.7,2.99,-0.01,0.08,28.09,70.0-80.0
70.0,1191.0,-0.1,-1.15,10.11,-0.25,1.11,-0.82,28.08,70.0-80.0
70.0,1111.0,1.22,-1.61,10.51,-3.18,-1.79,0.6,28.12,70.0-80.0
70.0,1193.0,-0.17,1.8,9.69,1.54,-1.61,1.31,28.11,70.0-80.0
70.0,891.0,-0.37,-1.38,9.48,-2.22,1.21,0.12,28.12,70.0-80.0
70.0,1806.0,0.17,0.36,9.68,-0.84,-0.69,1.08,28.08,70.0-80.0
70.0,1817.0,-0.06,1.85,9.54,3.63,1.52,-0.21,28.12,70.0-80.0
70.0,542.0,-0.77,-1.22,9.55,-0.78,2.52,-0.89,28.11,70.0-80.0
70.0,995.0,-0.28,2.05,9.7,1.84,-1.72,0.46,28.09,70.0-80.0
70.0,1825.0,-0.64,-0.54,10.0,0.44,-0.01,-1.13,28.09,70.0-80.0
70.0,464.0,0.76,-1.78,10.53,-3.55,-1.84,-0.24,28.08,70.0-80.0
70.0,0.0,0.27,1.47,9.58,0.12,-1.27,1.1,28.1,70.0-80.0
70.0,2107.0,-0.88,-1.4,9.4,-0.81,3.47,-0.49,28.08,70.0-80.0
70.0,1572.0,0.96,-0.39,9.47,-1.78,-0.65,0.89,28.09,70.0-80.0
70.0,954.0,-0.46,1.88,9.54,3.57,0.74,0.67,28.1,70.0-80.0
70.0,618.0,-0.02,-1.21,10.22,0.1,2.46,-0.53,28.09,70.0-80.0
70.0,1488.0,0.11,1.67,9.45,0.61,-0.56,0.99,28.08,70.0-80.0
70.0,1459.0,-2.1,0.82,9.37,1.89,0.71,-0.89,28.09,70.0-80.0
70.0,670.0,-0.22,-1.61,9.63,-2.58,0.37,-0.63,28.09,70.0-80.0
70.0,335.0,-0.23,0.64,9.54,-0.55,-0.18,0.55,28.12,70.0-80.0
70.0,1083.0,0.14,-1.33,10.34,-0.05,1.91,-1.01,28.09,70.0-80.0
70.0,1225.0,1.1,-1.59,10.14,-3.15,-1.52,0.23,28.11,70.0-80.0
70.0,0.0,-0.26,1.92,9.78,1.99,-1.75,1.16,28.12,70.0-80.0
70.0,1135.0,0.06,-0.54,10.22,0.45,-0.25,-0.35,28.1,70.0-80.0
70.0,1377.0,0.1,0.7,9.66,-0.49,-0.37,1.25,28.09,70.0-80.0
70.0,1507.0,-1.05,1.89,9.05,3.44,1.96,-0.11,28.09,70.0-80.0
70.0,59.0,-0.89,-1.35,9.34,-1.06,2.65,-0.76,28.11,70.0-80.0
70.0,851.0,0.02,1.79,9.91,1.99,-1.06,0.4,28.1,70.0-80.0
70.0,1243.0,-0.08,-0.5,10.04,0.65,0.14,-1.1,28.1,70.0-80.0
70.0,624.0,0.56,-1.74,10.58,-3.65,-1.79,-0.2,28.09,70.0-80.0
70.0,146.0,0.71,1.43,9.89,0.33,-2.19,0.78,28.09,70.0-80.0
70.0,1032.0,-0.91,-1.3,9.33,-1.15,2.68,-0.5,28.09,70.0-80.0
70.0,1418.0,0.45,-0.05,9.64,-1.36,-1.15,1.08,28.1,70.0-80.0
70.0,869.0,-0.32,1.7,9.45,3.53,1.62,0.5,28.1,70.0-80.0
70.0,720.0,-0.43,-1.29,10.01,-0.2,2.2,-0.49,28.1,70.0-80.0
70.0,1151.0,0.62,1.66,9.94,0.79,-2.04,1.01,28.12,70.0-80.0
70.0,1136.0,-1.63,0.16,9.78,1.09,0.33,-0.76,28.12,70.0-80.0
70.0,725.0,0.18,-1.59,10.04,-3.18,-1.09,-0.37,28.08,70.0-80.0
70.0,711.0,0.19,1.02,9.5,-0.22,-0.88,0.47,28.08,70.0-80.0
70.0,1797.0,-0.42,-1.25,9.89,-0.16,2.54,-1.05,28.09,70.0-80.0
70.0,1235.0,1.62,-0.9,9.87,-2.49,-1.55,0.32,28.09,70.0-80.0
70.0,0.0,-0.84,1.85,9.67,2.71,-0.44,0.75,28.09,70.0-80.0
70.0,1648.0,0.38,-1.13,10.32,-0.13,0.31,-0.47,28.1,70.0-80.0
70.0,1697.0,0.39,1.11,9.71,0.01,-1.03,1.27,28.11,70.0-80.0
70.0,1501.0,-1.52,1.38,9.34,2.5,1.17,-0.18,28.1,70.0-80.0
70.0,0.0,-0.66,-1.27,9.33,-2.02,1.56,-0.26,28.09,70.0-80.0
70.0,1315.0,0.09,-0.05,9.85,-1.47,-1.41,0.58,28.09,70.0-80.0
70.0,1606.0,0.36,-1.19,10.39,-0.07,0.62,-1.02,28.11,70.0-80.0
70.0,1072.0,1.51,-1.69,10.77,-3.26,-1.49,-0.27,28.09,70.0-80.0
70.0,411.0,-0.13,1.96,9.62,1.54,-1.61,0.72,28.08,70.0-80.0
70.0,1712.0,-1.05,-0.36,9.83,0.28,-0.6,-0.79,28.1,70.0-80.0
70.0,1617.0,0.19,0.29,9.79,-1.0,-0.63,0.93,28.09,70.0-80.0
70.0,1120.0,-0.1,1.96,9.44,3.96,1.93,0.18,28.1,70.0-80.0
70.0,1679.0,-0.97,-1.42,9.54,-0.8,2.8,-0.38,28.08,70.0-80.0
70.0,1897.0,0.91,-0.52,9.42,-2.2,-1.32,0.64,28.09,70.0-80.0
70.0,2169.0,-0.76,-0.41,9.85,0.57,-0.33,-0.79,28.08,70.0-80.0
70.0,816.0,0.88,-1.63,10.71,-3.26,-1.76,-0.06,28.09,70.0-80.0
70.0,1166.0,0.76,1.41,9.64,0.24,-1.11,0.75,28.09,70.0-80.0
70.0,1873.0,-1.91,1.04,9.39,2.38,0.98,-0.81,28.09,70.0-80.0
70.0,1250.0,1.66,-0.54,9.95,-2.19,-2.51,0.35,28.09,70.0-80.0
70.0,626.0,-0.46,1.89,9.78,3.46,0.75,0.43,28.08,70.0-80.0
70.0,2227.0,0.2,-1.44,10.36,-0.54,0.25,-0.64,28.1,70.0-80.0
70.0,2078.0,1.57,-1.71,10.7,-3.45,-2.65,0.56,28.11,70.0-80.0
70.0,1975.0,-1.43,1.05,9.64,2.31,1.27,-0.27,28.11,70.0-80.0
70.0,1395.0,-0.88,-1.27,9.16,-2.32,1.69,-0.12,28.1,70.0-80.0
70.0,2393.0,0.35,0.1,9.86,-1.42,-1.46,0.78,28.08,70.0-80.0
70.0,2112.0,0.25,1.91,9.67,3.98,1.43,-0.24,28.07,70.0-80.0
70.0,1135.0,1.44,-1.77,10.86,-3.61,-2.24,-0.21,28.09,70.0-80.0
70.0,972.0,-0.61,2.25,9.35,1.76,-1.63,0.82,28.1,70.0-80.0
70.0,2678.0,-1.02,-0.54,9.82,0.38,-0.1,-1.01,28.11,70.0-80.0
70.0,2559.0,0.71,-1.67,10.45,-3.15,-1.41,-0.05,28.09,70.0-80.0
70.0,2256.0,0.38,1.92,9.81,4.1,0.82,0.21,28.07,70.0-80.0
70.0,1600.0,-0.76,-1.27,9.57,-0.75,3.39,-0.23,28.08,70.0-80.0
70.0,2862.0,0.93,-1.01,9.63,-3.27,-2.16,0.58,28.08,70.0-80.0
70.0,2476.0,-0.24,2.27,9.91,3.64,-0.89,0.87,28.08,70.0-80.0
70.0,1456.0,0.64,-1.87,10.43,-3.27,-1.46,-0.2,28.09,70.0-80.0
70.0,2611.0,0.08,1.45,9.3,0.18,0.65,0.9,28.09,70.0-80.0
70.0,2055.0,-1.36,1.52,9.22,3.12,1.32,-0.82,28.09,70.0-80.0
70.0,1566.0,-1.02,-1.51,9.35,-1.7,2.13,-0.78,28.09,70.0-80.0
70.0,1909.0,-0.52,2.35,9.78,3.34,-1.66,0.7,28.08,70.0-80.0
70.0,2830.0,0.58,-1.14,10.37,-0.02,0.92,-0.6,28.07,70.0-80.0
70.0,1727.0,1.25,-2.05,10.9,-4.0,-2.25,0.15,28.09,70.0-80.0
70.0,1136.0,-0.08,2.24,9.29,1.23,-0.94,1.59,28.07,70.0-80.0
70.0,2271.0,-1.48,-1.36,9.04,-1.62,2.69,-0.21,28.09,70.0-80.0
70.0,2283.0,1.13,-0.45,9.98,-2.22,-1.58,0.78,28.08,70.0-80.0
70.0,906.0,0.79,1.05,10.39,2.28,-2.5,0.21,27.52,70.0-80.0
70.0,511.0,0.74,0.1,10.28,0.09,-1.49,0.41,27.54,70.0-80.0
70.0,344.0,-1.27,0.94,8.63,1.67,-0.59,0.79,27.52,70.0-80.0
70.0,0.0,-1.41,-0.6,9.5,-0.66,2.86,0.32,27.54,70.0-80.0
70.0,66.0,0.42,1.16,10.06,2.12,-2.54,1.66,27.53,70.0-80.0
70.0,2244.0,0.21,-0.02,10.06,-0.17,-0.24,1.21,27.52,70.0-80.0
70.0,816.0,-0.36,0.47,8.98,0.73,0.5,0.96,27.52,70.0-80.0
70.0,1694.0,-0.66,-0.56,9.69,-0.19,3.17,-1.6,27.53,70.0-80.0
70.0,2384.0,-0.81,1.05,8.58,1.49,-0.83,-0.02,27.53,70.0-80.0
70.0,2860.0,-2.18,-0.32,8.91,0.61,5.59,-2.47,27.51,70.0-80.0
70.0,2015.0,3.23,-1.31,11.59,-2.26,-3.3,-0.47,27.56,70.0-80.0
70.0,2551.0,-0.85,0.48,9.29,-1.01,-5.27,-0.47,27.54,70.0-80.0
70.0,2167.0,2.43,-1.38,11.21,-2.25,-0.98,0.44,27.52,70.0-80.0
70.0,946.0,-0.79,0.78,9.64,-0.74,-4.71,0.66,27.52,70.0-80.0
70.0,1770.0,1.02,0.23,10.59,0.91,3.39,1.5,27.52,70.0-80.0
70.0,784.0,0.33,0.42,9.16,0.53,-2.57,1.75,27.53,70.0-80.0
70.0,2020.0,2.37,-0.13,11.39,0.62,1.84,0.64,27.51,70.0-80.0
70.0,989.0,-0.35,-0.36,8.77,-0.91,-2.34,0.24,27.52,70.0-80.0
70.0,2263.0,0.02,0.13,10.26,2.34,6.72,-2.66,27.51,70.0-80.0
70.0,393.0,-1.82,-0.49,8.36,-0.62,-0.05,-0.55,27.53,70.0-80.0
70.0,38.0,0.8,0.13,10.85,1.47,1.55,-1.91,27.52,70.0-80.0
70.0,393.0,-2.38,-0.39,8.18,1.2,5.29,-0.08,27.51,70.0-80.0
70.0,1408.0,0.98,1.02,9.85,1.08,-0.15,1.68,27.52,70.0-80.0
70.0,588.0,-1.96,0.38,8.77,1.96,4.08,-0.29,27.52,70.0-80.0
70.0,1600.0,-0.52,-0.33,8.6,-0.81,-0.3,1.68,27.5,70.0-80.0
70.0,2474.0,0.43,0.87,10.4,2.91,3.44,-0.11,27.5,70.0-80.0
70.0,1089.0,-2.4,-0.48,8.3,0.44,4.37,0.09,27.53,70.0-80.0
70.0,421.0,0.34,0.71,9.55,0.04,-1.35,0.35,27.51,70.0-80.0
70.0,2006.0,1.35,-0.78,10.77,0.73,3.01,-1.28,27.51,70.0-80.0
70.0,2927.0,0.26,-1.09,9.14,-1.74,-0.74,-0.82,27.52,70.0-80.0
70.0,1678.0,0.16,1.25,10.14,2.47,0.3,-0.85,27.51,70.0-80.0
70.0,1353.0,2.61,-1.65,11.47,-3.0,-2.56,-0.06,27.51,70.0-80.0
70.0,2066.0,-0.58,1.95,9.42,0.74,-1.88,1.39,27.51,70.0-80.0
70.0,1886.0,0.62,-0.98,10.62,-0.8,-2.16,0.34,27.52,70.0-80.0
70.0,1562.0,2.01,-1.73,11.23,-3.21,-2.19,1.02,27.48,70.0-80.0
70.0,1744.0,-1.86,0.75,9.19,1.47,-0.39,-0.26,27.54,70.0-80.0
70.0,574.0,-0.38,-0.95,9.75,-2.58,-1.66,0.32,27.52,70.0-80.0
70.0,829.0,1.31,0.91,10.42,0.07,-0.59,0.46,27.52,70.0-80.0
70.0,1953.0,-2.13,0.46,9.15,1.05,-0.6,-2.09,27.51,70.0-80.0
70.0,1136.0,-0.02,-0.41,9.03,-1.76,-1.81,-0.47,27.51,70.0-80.0
70.0,704.0,0.4,1.41,10.26,3.35,1.55,-0.78,27.52,70.0-80.0
70.0,361.0,-1.21,-0.92,9.24,0.1,4.83,-0.14,27.52,70.0-80.0
70.0,1936.0,0.44,-0.45,9.08,-1.94,-2.16,1.19,27.49,70.0-80.0
70.0,767.0,0.13,-1.0,10.39,-0.3,-1.53,0.12,27.52,70.0-80.0
70.0,1013.0,1.88,-1.84,11.12,-3.33,-2.37,0.89,27.5,70.0-80.0
70.0,371.0,-0.72,2.33,8.97,1.47,-0.15,1.46,27.52,70.0-80.0
70.0,1939.0,-1.09,-0.74,9.98,-0.08,-1.53,-1.01,27.49,70.0-80.0
70.0,1892.0,1.09,0.33,10.4,-0.78,-1.72,0.55,27.5,70.0-80.0
70.0,2510.0,-0.28,1.36,9.78,3.21,0.88,-1.54,27.52,70.0-80.0
70.0,2181.0,-1.8,-1.0,8.75,-1.06,3.36,-1.04,27.51,70.0-80.0
70.0,2118.0,0.62,-0.25,9.72,-1.67,-2.59,0.49,27.5,70.0-80.0
70.0,2270.0,1.0,-1.51,10.76,-0.37,0.66,-0.63,27.5,70.0-80.0
70.0,1358.0,1.53,-1.83,10.75,-3.24,-1.85,0.63,27.53,70.0-80.0
70.0,1806.0,-1.34,2.52,8.78,2.27,0.18,1.86,27.52,70.0-80.0
70.0,933.0,-0.27,-1.07,10.13,-0.3,-0.76,-0.23,27.53,70.0-80.0
70.0,1989.0,1.01,0.49,10.35,-0.95,-1.56,1.45,27.49,70.0-80.0
70.0,1611.0,-0.06,1.45,10.0,3.21,0.57,-0.79,27.52,70.0-80.0
70.0,687.0,-1.86,-1.04,8.75,-1.56,3.33,-0.92,27.52,70.0-80.0
70.0,733.0,0.48,-0.3,9.93,-2.1,-2.54,-0.09,27.5,70.0-80.0
70.0,2593.0,0.12,-1.46,10.38,-0.31,1.2,-1.59,27.52,70.0-80.0
70.0,324.0,1.44,-1.73,10.65,-3.26,-1.49,-0.44,27.52,70.0-80.0
70.0,365.0,-0.71,2.44,8.89,2.18,0.34,1.4,27.5,70.0-80.0
70.0,908.0,-0.82,-0.94,9.89,-0.2,-1.32,-0.27,27.52,70.0-80.0
70.0,2350.0,0.49,0.18,9.99,-1.33,-0.56,1.68,27.51,70.0-80.0
70.0,1142.0,0.26,1.86,10.14,3.79,0.13,0.27,27.5,70.0-80.0
70.0,1776.0,-1.46,-1.1,8.83,-0.8,4.36,-0.24,27.51,70.0-80.0
70.0,2927.0,0.21,-0.52,9.5,-2.6,-2.16,0.17,27.49,70.0-80.0
70.0,2018.0,-0.33,-1.44,9.93,-0.62,-0.91,-1.66,27.52,70.0-80.0
70.0,235.0,1.12,-1.52,10.92,-2.61,-1.21,-0.79,27.52,70.0-80.0
70.0,1788.0,0.29,2.18,9.17,1.75,0.92,0.76,27.5,70.0-80.0
70.0,2608.0,-2.04,-0.2,9.56,0.73,-0.56,-1.07,27.5,70.0-80.0
70.0,1833.0,0.57,-0.44,9.76,-2.57,-2.39,0.85,27.54,70.0-80.0
70.0,1712.0,-0.13,2.56,9.79,4.98,0.72,0.96,27.51,70.0-80.0
70.0,1926.0,-0.11,-1.68,10.01,-0.8,3.58,0.03,27.52,70.0-80.0
70.0,1981.0,1.19,-1.29,9.69,-3.55,-2.79,0.49,27.54,70.0-80.0
70.0,1841.0,-1.92,-0.43,9.54,0.5,-0.77,-0.89,27.52,70.0-80.0
70.0,1200.0,-0.39,-1.58,9.99,-2.84,0.59,-0.52,27.52,70.0-80.0
70.0,2270.0,1.17,0.95,10.18,-0.3,-0.05,0.44,27.49,70.0-80.0
70.0,1197.0,-0.55,1.43,10.13,3.18,0.31,-1.37,27.53,70.0-80.0
70.0,0.0,1.0,-1.2,9.61,-3.41,-2.42,-0.44,27.53,70.0-80.0
70.0,1095.0,-1.64,3.24,8.67,4.85,0.4,1.07,27.52,70.0-80.0
70.0,798.0,0.65,-2.13,10.67,-1.13,0.25,-0.4,27.53,70.0-80.0
70.0,1147.0,1.23,-1.74,10.67,-3.58,-1.14,0.53,27.51,70.0-80.0
70.0,1516.0,-1.23,1.41,9.67,3.11,0.57,-0.05,27.51,70.0-80.0
70.0,0.0,-1.46,-1.46,9.05,-2.1,2.43,0.05,27.49,70.0-80.0
70.0,2928.0,0.54,-0.25,9.69,-2.55,-1.76,0.58,27.51,70.0-80.0
70.0,2926.0,0.23,2.74,9.97,5.53,0.82,-0.29,27.52,70.0-80.0
70.0,16.0,1.68,-1.84,11.01,-3.55,-1.95,-0.84,27.51,70.0-80.0
70.0,770.0,-0.26,2.61,9.09,2.71,1.33,0.75,27.53,70.0-80.0
70.0,2182.0,-2.15,-0.34,9.22,0.91,-0.37,-1.48,27.51,70.0-80.0
70.0,1812.0,-0.09,-1.82,10.07,-3.12,-0.07,0.03,27.51,70.0-80.0
70.0,1517.0,0.49,2.7,10.01,5.32,0.36,0.76,27.52,70.0-80.0
70.0,1264.0,-0.23,-1.86,9.93,-1.27,3.2,0.02,27.5,70.0-80.0
70.0,2559.0,1.07,-1.38,9.85,-3.76,-3.23,0.78,27.5,70.0-80.0
70.0,719.0,-1.14,3.14,8.84,4.73,0.72,1.43,27.52,70.0-80.0
70.0,1511.0,-0.59,-1.72,9.85,-2.97,0.24,-0.24,27.52,70.0-80.0
70.0,2209.0,1.0,0.72,10.13,-1.04,-0.94,0.63,27.49,70.0-80.0
70.0,1965.0,-0.94,1.99,9.62,4.42,1.26,-1.19,27.5,70.0-80.0
70.0,0.0,-0.95,-1.74,9.45,-1.87,3.36,-1.17,27.52,70.0-80.0
70.0,1263.0,-1.26,3.0,8.77,4.36,1.08,0.79,27.5,70.0-80.0
70.0,1083.0,-0.46,-1.52,9.97,-0.6,-0.85,-0.92,27.5,70.0-80.0
70.0,656.0,1.08,-1.93,10.86,-3.77,-1.53,0.55,27.49,70.0-80.0
70.0,0.0,0.64,2.1,9.55,1.43,0.37,2.08,27.48,70.0-80.0
70.0,1877.0,-1.11,-1.39,8.92,-1.85,3.3,0.18,27.5,70.0-80.0
70.0,1341.0,1.12,-0.55,10.1,-2.97,-3.49,0.95,27.5,70.0-80.0
70.0,865.0,-0.35,2.79,9.44,5.06,0.92,0.29,27.51,70.0-80.0
70.0,586.0,0.28,-2.03,10.48,-1.3,1.03,-1.53,27.49,70.0-80.0
70.0,2928.0,0.77,1.78,9.71,1.06,-0.15,0.47,27.49,70.0-80.0
70.0,1456.0,-1.91,0.62,9.65,2.3,0.56,-1.53,27.52,70.0-80.0
70.0,0.0,-0.68,-1.65,9.43,-2.75,2.17,-0.56,27.5,70.0-80.0
70.0,2928.0,0.62,0.21,9.91,-1.61,-2.16,1.16,27.5,70.0-80.0
70.0,2071.0,0.17,-2.09,10.42,-1.35,0.59,-0.49,27.52,70.0-80.0
70.0,2170.0,1.59,-1.46,10.64,-3.19,-1.67,0.89,27.51,70.0-80.0
70.0,1883.0,-0.69,2.74,9.02,3.06,0.36,1.71,27.5,70.0-80.0
70.0,2205.0,-1.28,-1.07,9.47,-0.4,-1.59,-1.02,27.5,70.0-80.0
70.0,2128.0,0.63,-0.05,10.2,-2.02,-2.46,0.63,27.5,70.0-80.0
70.0,595.0,0.61,2.47,10.03,4.88,1.2,-0.5,27.51,70.0-80.0
70.0,1183.0,-0.07,-1.97,10.13,-1.65,2.95,-1.36,27.51,70.0-80.0
70.0,1392.0,0.88,-0.77,9.61,-3.24,-3.09,-0.17,27.49,70.0-80.0
70.0,2018.0,-1.43,-0.88,9.57,0.3,-0.57,-1.31,27.49,70.0-80.0
70.0,0.0,-0.37,-1.78,10.04,-3.12,0.31,0.2,27.51,70.0-80.0
70.0,1126.0,1.37,0.95,10.13,-0.17,-0.97,1.75,27.49,70.0-80.0
70.0,1471.0,-1.14,1.45,9.82,3.5,1.29,-0.06,27.52,70.0-80.0
70.0,357.0,1.43,-0.93,9.9,-3.33,-2.83,0.7,27.5,70.0-80.0
70.0,375.0,-1.05,3.18,8.82,4.94,0.45,1.28,27.5,70.0-80.0
70.0,1390.0,0.14,-2.05,10.39,-1.06,-0.65,-1.39,27.51,70.0-80.0
70.0,1750.0,0.93,-1.61,10.64,-3.27,-0.8,-0.6,27.49,70.0-80.0
70.0,1397.0,-0.92,2.07,9.84,4.22,1.0,-0.99,27.5,70.0-80.0
70.0,1121.0,-0.84,-1.71,9.24,-2.48,3.07,-0.89,27.51,70.0-80.0
70.0,1081.0,0.48,-0.26,9.75,-2.66,-3.08,0.7,27.5,70.0-80.0
70.0,2928.0,-0.29,2.7,9.44,5.08,1.49,0.84,27.5,70.0-80.0
70.0,1616.0,1.05,-1.91,10.75,-3.8,-1.43,0.61,27.5,70.0-80.0
70.0,1775.0,0.85,2.05,9.72,1.32,-1.0,1.91,27.5,70.0-80.0
70.0,1808.0,-1.45,0.08,9.86,1.6,-0.19,-0.66,27.49,70.0-80.0
70.0,1927.0,-1.09,-1.52,9.48,-3.03,0.92,-0.17,27.49,70.0-80.0
70.0,774.0,-0.51,2.84,9.31,5.11,0.71,0.23,27.49,70.0-80.0
70.0,1885.0,0.18,-2.17,10.54,-1.18,1.91,-1.48,27.49,70.0-80.0
70.0,1869.0,1.58,-1.28,10.1,-3.21,-2.45,-0.44,27.52,70.0-80.0
70.0,902.0,-1.32,3.08,8.69,3.87,0.53,0.9,27.52,70.0-80.0
70.0,510.0,-1.11,-1.58,9.4,-3.01,1.2,-0.09,27.52,70.0-80.0
70.0,1525.0,1.18,0.3,10.39,-1.18,-1.32,1.36,27.51,70.0-80.0
70.0,1429.0,-0.34,2.2,9.82,4.57,1.0,0.31,27.49,70.0-80.0
70.0,0.0,-0.97,-1.56,9.09,-1.73,3.35,-0.05,27.5,70.0-80.0
70.0,799.0,-1.21,2.92,8.74,3.66,0.69,1.48,27.5,70.0-80.0
70.0,1665.0,-0.62,-1.42,9.85,-0.55,-1.0,-1.24,27.51,70.0-80.0
70.0,1158.0,0.56,-1.62,10.78,-3.0,-0.54,-0.44,27.51,70.0-80.0
70.0,0.0,0.81,1.61,9.63,0.67,0.08,0.75,27.51,70.0-80.0
70.0,1757.0,-0.92,-1.7,9.33,-1.65,3.29,-1.13,27.49,70.0-80.0
70.0,2123.0,0.9,-0.69,9.77,-3.09,-3.87,0.24,27.5,70.0-80.0
70.0,1265.0,-0.38,2.73,9.45,4.92,0.91,0.84,27.49,70.0-80.0
70.0,1061.0,-0.01,-1.88,10.33,-1.06,1.44,-0.53,27.52,70.0-80.0
70.0,2687.0,0.76,1.3,9.8,-0.07,-1.24,1.6,27.51,70.0-80.0
70.0,2703.0,-1.04,1.33,10.05,3.17,-0.33,-0.24,27.5,70.0-80.0
70.0,1020.0,-1.15,-1.38,8.94,-2.34,2.27,-0.12,27.51,70.0-80.0
70.0,2271.0,1.07,-0.29,10.45,-2.39,-2.56,0.53,27.51,70.0-80.0
70.0,2757.0,0.35,-2.19,10.59,-1.36,0.01,-1.37,27.49,70.0-80.0
70.0,895.0,1.22,-1.42,10.6,-3.24,-1.79,-0.43,27.53,70.0-80.0
70.0,1033.0,-0.14,2.61,9.09,2.41,-0.08,1.13,27.51,70.0-80.0
70.0,2354.0,-1.33,-0.73,9.66,0.3,-1.32,-1.21,27.51,70.0-80.0
70.0,1515.0,0.54,-0.15,10.08,-2.14,-2.19,0.87,27.51,70.0-80.0
70.0,16.0,0.14,2.85,9.67,5.58,1.06,0.75,27.5,70.0-80.0
70.0,793.0,-0.17,-2.13,10.11,-1.73,2.8,-0.35,27.5,70.0-80.0
70.0,1574.0,1.24,-0.9,9.6,-2.97,-2.43,0.41,27.5,70.0-80.0
70.0,1066.0,-1.82,-0.3,9.5,0.99,-0.85,-1.05,27.51,70.0-80.0
70.0,43.0,-0.85,-1.58,9.57,-3.04,0.85,-0.29,27.5,70.0-80.0
70.0,1262.0,0.76,0.68,10.07,-0.77,-0.45,0.66,27.49,70.0-80.0
70.0,1113.0,-0.37,1.82,10.15,3.93,0.97,-1.02,27.47,70.0-80.0
70.0,417.0,1.54,-1.18,9.88,-3.5,-2.8,-0.24,27.51,70.0-80.0
70.0,1040.0,-2.05,3.3,8.5,4.36,0.34,1.28,27.51,70.0-80.0
70.0,2034.0,0.37,-1.84,10.62,-1.06,-1.2,-0.69,27.47,70.0-80.0
70.0,1488.0,0.85,-1.84,10.71,-3.62,-1.4,0.37,27.51,70.0-80.0
70.0,1340.0,-0.91,2.1,9.78,4.51,1.43,0.05,27.52,70.0-80.0
70.0,1424.0,-0.79,-1.78,9.34,-2.03,3.55,-0.31,27.49,70.0-80.0
70.0,2277.0,0.35,-0.56,9.66,-3.0,-3.47,0.44,27.48,70.0-80.0
70.0,2159.0,-0.3,2.78,9.53,5.18,0.45,0.41,27.5,70.0-80.0
70.0,1281.0,0.94,-2.02,10.9,-3.51,-0.66,-0.47,27.51,70.0-80.0
70.0,2038.0,0.27,2.05,9.11,1.29,-0.37,0.93,27.51,70.0-80.0
70.0,1894.0,-1.58,0.66,9.9,2.19,-0.01,-0.95,27.5,70.0-80.0
70.0,1722.0,-0.89,-1.74,9.39,-3.01,2.34,-0.26,27.5,70.0-80.0
70.0,1322.0,-0.97,2.85,9.13,4.83,1.0,0.87,27.5,70.0-80.0
70.0,1116.0,0.15,-1.8,10.46,-0.77,1.2,-0.55,27.5,70.0-80.0
70.0,1532.0,1.71,-1.53,10.47,-3.29,-1.7,0.47,27.49,70.0-80.0
70.0,1199.0,-0.92,2.8,8.65,3.08,0.59,1.5,27.48,70.0-80.0
70.0,530.0,-1.66,-1.43,8.95,-2.49,2.22,-0.26,27.48,70.0-80.0
70.0,1089.0,0.85,0.04,10.2,-1.62,-1.85,0.69,27.49,70.0-80.0
70.0,1565.0,0.53,2.39,10.13,5.0,1.41,-0.52,27.52,70.0-80.0
70.0,0.0,-1.03,-1.62,9.33,-1.24,3.27,-0.98,27.51,70.0-80.0
70.0,752.0,-0.68,2.76,9.1,3.08,-0.07,1.13,27.49,70.0-80.0
70.0,1535.0,-0.92,-0.81,9.8,0.38,-0.97,-0.95,27.5,70.0-80.0
70.0,1397.0,-0.22,-1.82,10.02,-3.26,-0.11,0.2,27.49,70.0-80.0
70.0,249.0,0.91,1.15,9.95,-0.04,-0.57,1.34,27.5,70.0-80.0
70.0,1568.0,0.09,-1.91,10.1,-1.52,2.85,-0.5,27.5,70.0-80.0
70.0,2256.0,1.35,-0.87,9.76,-3.38,-3.53,0.55,27.5,70.0-80.0
70.0,1570.0,-1.57,3.19,8.67,4.91,0.91,0.81,27.5,70.0-80.0
70.0,1397.0,0.55,-2.02,10.7,-1.09,0.24,-1.31,27.51,70.0-80.0
70.0,2515.0,1.43,0.94,10.28,-0.43,-1.08,0.78,27.52,70.0-80.0
70.0,2755.0,-1.11,1.55,9.91,3.24,0.36,-0.93,27.51,70.0-80.0
70.0,498.0,-1.49,-1.65,8.93,-2.48,2.85,-0.4,27.5,70.0-80.0
70.0,1677.0,0.38,-0.42,9.96,-2.68,-3.18,0.78,27.52,70.0-80.0
70.0,2394.0,0.38,-2.06,10.55,-1.07,-0.22,-0.85,27.49,70.0-80.0
70.0,894.0,1.6,-1.9,10.84,-3.35,-1.67,0.27,27.49,70.0-80.0
70.0,366.0,-0.46,2.55,8.86,2.5,1.47,1.46,27.52,70.0-80.0
70.0,1488.0,-1.79,-0.15,9.42,1.28,-0.47,-1.01,27.49,70.0-80.0
70.0,1888.0,0.87,-0.34,9.97,-2.39,-2.91,0.6,27.49,70.0-80.0
70.0,202.0,-0.21,2.81,9.56,5.56,1.91,0.12,27.52,70.0-80.0
70.0,881.0,0.04,-2.02,10.25,-1.49,1.61,-1.25,27.49,70.0-80.0
70.0,1589.0,0.47,2.02,9.56,1.37,0.57,0.9,27.52,70.0-80.0
70.0,1267.0,-1.43,0.31,9.77,2.02,0.4,-1.04,27.49,70.0-80.0
70.0,0.0,-0.85,-1.65,9.59,-3.36,0.11,0.08,27.49,70.0-80.0
70.0,1285.0,1.3,0.28,10.41,-1.45,-2.02,1.33,27.5,70.0-80.0
70.0,1459.0,0.66,-2.11,10.6,-1.13,2.54,-0.53,27.49,70.0-80.0
70.0,488.0,1.3,-1.31,9.88,-3.33,-2.36,0.43,27.49,70.0-80.0
70.0,583.0,-1.25,2.97,8.67,3.7,0.69,1.22,27.5,70.0-80.0
70.0,2800.0,-0.71,-1.33,9.96,-0.19,-0.62,-1.34,27.5,70.0-80.0
70.0,1999.0,0.92,0.16,10.19,-1.55,-1.93,0.6,27.52,70.0-80.0
70.0,1461.0,0.32,2.27,10.2,4.68,1.12,-0.63,27.5,70.0-80.0
70.0,1698.0,-1.0,-1.5,9.16,-1.47,3.53,-0.75,27.51,70.0-80.0
70.0,2071.0,0.64,-0.68,9.64,-3.06,-3.62,0.46,27.49,70.0-80.0
70.0,1926.0,-0.77,-1.16,9.81,0.13,-0.25,-0.87,27.49,70.0-80.0
70.0,1555.0,0.42,-1.97,10.56,-3.53,-0.76,0.15,27.49,70.0-80.0
70.0,2475.0,0.54,1.79,9.54,0.71,0.01,1.56,27.48,70.0-80.0
70.0,1935.0,-1.58,1.09,9.71,2.96,0.36,-0.53,27.52,70.0-80.0
70.0,1337.0,1.31,-0.74,9.83,-2.89,-3.29,0.47,27.49,70.0-80.0
70.0,1023.0,-1.03,2.79,8.94,4.66,1.01,0.72,27.49,70.0-80.0
70.0,1377.0,0.17,-1.77,10.46,-0.68,0.56,-1.33,27.51,70.0-80.0
70.0,1351.0,1.52,-1.7,10.75,-3.39,-1.79,-0.15,27.52,70.0-80.0
70.0,831.0,-1.18,1.49,9.81,3.58,0.59,-0.66,27.51,70.0-80.0
70.0,1111.0,-1.26,-1.68,9.13,-2.48,3.0,-0.35,27.51,70.0-80.0
70.0,774.0,0.46,-0.11,9.91,-2.37,-3.17,0.95,27.52,70.0-80.0
70.0,1478.0,0.13,2.7,9.8,5.34,0.63,0.78,27.5,70.0-80.0
70.0,377.0,1.36,-1.74,10.79,-3.26,-1.02,0.31,27.51,70.0-80.0
70.0,945.0,0.35,2.18,9.36,1.75,0.22,1.46,27.5,70.0-80.0
70.0,1490.0,-1.98,0.17,9.36,1.63,0.16,-1.08,27.48,70.0-80.0
70.0,1351.0,-0.83,-1.74,9.65,-3.24,0.63,-0.34,27.48,70.0-80.0
70.0,210.0,0.05,2.73,9.66,5.26,0.54,0.32,27.49,70.0-80.0
70.0,1154.0,0.29,-2.12,10.41,-1.13,2.57,-1.19,27.5,70.0-80.0
70.0,2090.0,1.13,-1.24,9.77,-3.24,-1.69,-0.18,27.5,70.0-80.0
70.0,1217.0,-1.63,3.15,8.56,3.9,0.4,1.34,27.49,70.0-80.0
70.0,1049.0,-0.62,-1.82,9.52,-2.92,1.79,-0.06,27.49,70.0-80.0
70.0,2703.0,1.12,0.19,10.4,-1.39,-1.85,1.16,27.5,70.0-80.0
70.0,2413.0,0.02,2.49,9.99,4.91,0.53,0.18,27.48,70.0-80.0
70.0,810.0,-0.86,-1.74,9.38,-1.99,3.36,-0.47,27.5,70.0-80.0
70.0,2318.0,-1.2,3.11,8.5,3.49,1.09,1.34,27.49,70.0-80.0
70.0,2213.0,-1.21,-1.05,9.8,0.01,-1.41,-1.28,27.49,70.0-80.0
70.0,1107.0,0.32,-1.99,10.49,-3.74,-0.5,-0.5,27.52,70.0-80.0
70.0,837.0,1.2,1.4,9.97,0.3,-1.12,1.05,27.5,70.0-80.0
70.0,1810.0,-0.6,-1.85,9.62,-1.47,3.3,-0.92,27.52,70.0-80.0
70.0,1936.0,1.27,-0.84,9.79,-3.12,-2.6,0.43,27.5,70.0-80.0
70.0,0.0,-1.03,3.01,8.82,4.86,0.98,1.21,27.5,70.0-80.0
70.0,1063.0,0.04,-1.81,10.31,-0.62,0.45,-0.75,27.5,70.0-80.0
70.0,1969.0,1.55,0.97,10.49,-0.37,-1.27,1.37,27.5,70.0-80.0
70.0,720.0,-1.03,1.62,9.86,3.61,0.51,-0.52,27.49,70.0-80.0
70.0,0.0,-1.58,-1.56,8.84,-2.34,3.21,-0.46,27.48,70.0-80.0
70.0,1782.0,0.49,-0.24,9.78,-2.28,-2.72,0.4,27.5,70.0-80.0
70.0,1895.0,0.55,-1.84,10.58,-0.66,-0.56,-1.5,27.52,70.0-80.0
70.0,0.0,1.19,-1.92,10.8,-3.5,-1.64,-0.21,27.49,70.0-80.0
70.0,1013.0,0.4,2.11,9.47,1.72,0.16,1.19,27.5,70.0-80.0
70.0,2927.0,-1.85,0.27,9.5,1.8,0.51,-0.81,27.51,70.0-80.0
70.0,1659.0,0.54,-0.41,9.63,-2.97,-3.52,0.84,27.5,70.0-80.0
70.0,358.0,0.12,2.66,9.77,5.06,0.3,0.92,27.49,70.0-80.0
70.0,2607.0,0.05,-1.93,10.3,-1.03,1.88,-0.52,27.49,70.0-80.0
70.0,2638.0,1.25,-1.38,10.0,-3.53,-2.01,0.11,27.5,70.0-80.0
70.0,1381.0,-1.86,0.49,9.66,1.76,-0.24,-1.02,27.49,70.0-80.0
70.0,1258.0,-0.94,-1.65,9.45,-2.78,0.85,-0.38,27.48,70.0-80.0
70.0,2928.0,1.32,0.28,10.39,-1.29,-1.92,0.69,27.51,70.0-80.0
70.0,2128.0,0.05,2.29,10.25,4.6,0.59,-0.47,27.5,70.0-80.0
70.0,593.0,0.97,-1.23,10.01,-3.19,-1.7,-0.14,27.52,70.0-80.0
70.0,1423.0,-1.11,3.0,8.82,3.37,0.28,1.43,27.5,70.0-80.0
70.0,1904.0,-0.62,-1.16,9.91,0.15,-0.76,-0.73,27.51,70.0-80.0
70.0,560.0,0.8,-2.01,10.68,-3.76,-1.29,0.2,27.49,70.0-80.0
70.0,143.0,0.13,2.27,10.03,4.76,1.47,0.06,27.5,70.0-80.0
70.0,1407.0,-0.79,-1.63,9.33,-1.56,3.39,-0.5,27.5,70.0-80.0
70.0,1142.0,0.35,-0.76,9.3,-3.13,-2.75,0.17,27.5,70.0-80.0
