Speed,Voice,Acceleration X,Acceleration Y,Acceleration Z,Gyro X,Gyro Y,Gyro Z,Temperature,Speed_Range
70.0,2162.0,0.46,-0.36,11.61,-1.33,-3.43,2.24,17.84,70.0-80.0
70.0,2785.0,-0.38,1.67,10.23,0.15,-2.7,0.01,17.87,70.0-80.0
70.0,1708.0,1.07,2.44,11.59,3.28,-4.56,2.89,17.85,70.0-80.0
70.0,578.0,-0.35,0.88,9.5,0.56,0.37,-0.14,17.86,70.0-80.0
70.0,903.0,-1.25,-3.26,9.44,-2.54,-0.32,-3.76,17.86,70.0-80.0
70.0,2017.0,-0.42,-0.58,9.37,-1.21,4.75,-1.32,17.86,70.0-80.0
70.0,2426.0,0.4,-0.83,9.3,-0.08,-0.05,-2.37,17.86,70.0-80.0
70.0,2825.0,1.29,-1.16,11.8,-3.12,-1.39,2.05,17.85,70.0-80.0
70.0,2375.0,-1.04,0.49,9.12,0.25,2.18,0.8,17.85,70.0-80.0
70.0,1825.0,-0.36,0.99,10.25,2.22,-4.99,2.24,17.84,70.0-80.0
70.0,1172.0,-0.66,1.55,8.13,2.1,5.98,0.71,17.84,70.0-80.0
70.0,1161.0,-0.36,0.73,9.45,1.75,-4.9,0.76,17.84,70.0-80.0
70.0,811.0,0.57,-0.01,11.31,-0.65,2.03,0.21,17.85,70.0-80.0
70.0,500.0,-2.7,-1.41,8.83,-0.75,1.72,-2.45,17.84,70.0-80.0
70.0,1614.0,1.22,0.54,11.58,0.19,0.93,-0.25,17.83,70.0-80.0
70.0,1648.0,-3.16,-1.3,8.17,-1.12,3.26,-2.42,17.84,70.0-80.0
70.0,2757.0,1.84,-1.15,12.64,-2.42,-10.09,2.01,17.85,70.0-80.0
70.0,2038.0,-1.04,-1.64,8.55,-2.31,5.98,-1.84,17.85,70.0-80.0
70.0,2224.0,1.48,-0.27,12.38,-2.11,-9.4,2.95,17.85,70.0-80.0
70.0,2495.0,-0.67,-1.75,9.16,-1.36,6.07,-1.35,17.84,70.0-80.0
70.0,1535.0,-2.04,0.92,7.43,1.76,-2.76,1.88,17.84,70.0-80.0
70.0,1509.0,2.34,-0.17,11.47,0.85,0.81,-0.95,17.83,70.0-80.0
70.0,1998.0,-2.59,0.54,7.68,1.63,0.72,1.01,17.86,70.0-80.0
70.0,1488.0,2.33,-0.45,10.66,-0.63,-2.93,-1.78,17.85,70.0-80.0
70.0,1952.0,0.09,-0.32,10.76,0.88,3.2,-0.22,17.84,70.0-80.0
70.0,1289.0,-1.67,1.49,8.17,1.84,-0.6,-0.56,17.84,70.0-80.0
70.0,912.0,1.03,0.54,10.58,0.6,-2.32,1.61,17.84,70.0-80.0
70.0,1583.0,-0.43,-0.36,9.81,0.25,2.49,-0.83,17.86,70.0-80.0
70.0,1927.0,-0.71,-0.54,9.39,0.44,-2.38,0.72,17.87,70.0-80.0
70.0,1085.0,-0.44,0.79,9.33,-0.01,1.3,-0.59,17.85,70.0-80.0
70.0,1535.0,0.72,-0.29,11.14,1.06,-2.53,0.94,17.83,70.0-80.0
70.0,1435.0,-1.62,0.31,9.11,0.65,4.03,-1.56,17.86,70.0-80.0
70.0,1179.0,-0.96,-0.39,8.33,0.64,-1.3,-0.07,17.84,70.0-80.0
70.0,1476.0,0.96,1.51,10.2,0.99,0.88,-0.76,17.83,70.0-80.0
70.0,1138.0,-0.66,0.19,10.39,1.78,0.03,1.03,17.82,70.0-80.0
70.0,1523.0,-1.19,0.82,8.93,0.93,0.59,-0.57,17.84,70.0-80.0
70.0,1263.0,-0.41,0.16,8.21,0.79,0.34,0.36,17.84,70.0-80.0
70.0,1088.0,0.69,1.47,9.77,1.06,1.02,-0.51,17.87,70.0-80.0
70.0,1340.0,-0.37,0.03,10.73,1.31,-0.6,1.08,17.82,70.0-80.0
70.0,1217.0,-1.53,0.57,8.51,0.99,2.32,-1.46,17.84,70.0-80.0
70.0,1060.0,-0.19,-0.26,8.74,0.68,-1.95,-0.27,17.82,70.0-80.0
70.0,811.0,0.24,1.3,9.38,0.91,3.04,-1.56,17.84,70.0-80.0
70.0,1535.0,0.03,0.38,10.71,2.04,-1.8,1.03,17.84,70.0-80.0
70.0,1103.0,-1.43,0.39,8.86,1.02,3.74,-1.29,17.83,70.0-80.0
70.0,927.0,-1.19,0.11,8.7,1.43,-0.92,0.77,17.85,70.0-80.0
70.0,1628.0,0.58,1.1,9.02,0.47,1.04,-0.72,17.84,70.0-80.0
70.0,1350.0,0.48,-0.04,10.62,0.85,-2.2,1.84,17.82,70.0-80.0
70.0,897.0,-0.71,-0.14,9.66,0.3,2.58,-1.29,17.85,70.0-80.0
70.0,1463.0,-1.4,-0.08,9.94,1.05,-1.02,1.0,17.85,70.0-80.0
70.0,1280.0,-0.49,1.15,8.15,0.94,1.83,-1.84,17.84,70.0-80.0
70.0,1423.0,1.25,0.63,10.26,1.18,-3.39,1.05,17.86,70.0-80.0
70.0,1143.0,0.13,-0.86,9.52,0.15,1.34,-2.17,17.84,70.0-80.0
70.0,1597.0,-0.7,0.52,10.72,2.13,-1.77,0.89,17.84,70.0-80.0
70.0,1217.0,-1.24,0.64,8.41,1.2,3.33,-1.49,17.85,70.0-80.0
70.0,1258.0,0.39,0.41,10.09,0.44,-4.41,2.6,17.86,70.0-80.0
70.0,1708.0,0.62,-2.06,9.52,-1.46,0.08,-0.92,17.83,70.0-80.0
70.0,1365.0,0.57,0.46,10.42,1.69,-3.08,2.28,17.84,70.0-80.0
70.0,1393.0,-0.48,-0.59,9.64,0.45,1.83,-1.2,17.85,70.0-80.0
70.0,1147.0,-0.54,0.47,10.65,0.01,-1.86,1.98,17.84,70.0-80.0
70.0,1581.0,-0.48,-2.64,9.76,-2.1,-1.65,-2.13,17.83,70.0-80.0
70.0,1173.0,0.7,0.51,10.19,0.7,-3.59,1.34,17.83,70.0-80.0
70.0,1347.0,0.6,-1.65,9.46,-0.94,-0.09,-2.01,17.86,70.0-80.0
70.0,858.0,0.49,0.74,10.93,-0.74,-0.4,1.82,17.86,70.0-80.0
70.0,576.0,-1.25,-2.74,10.27,-2.6,-1.14,-1.18,17.85,70.0-80.0
70.0,716.0,-0.36,0.08,10.74,-0.81,-3.01,2.54,17.84,70.0-80.0
70.0,176.0,-0.29,-3.09,9.71,-2.74,-0.99,-1.12,17.83,70.0-80.0
70.0,592.0,1.19,1.15,9.57,-0.14,1.01,1.55,17.84,70.0-80.0
70.0,161.0,0.18,-1.1,9.48,-0.31,0.46,-0.71,17.83,70.0-80.0
70.0,336.0,0.27,0.78,10.7,-0.31,-0.05,1.88,17.84,70.0-80.0
70.0,0.0,-1.11,-2.58,10.25,-2.13,-1.05,-1.75,17.83,70.0-80.0
70.0,80.0,-0.67,1.38,9.54,0.54,2.23,-0.18,17.84,70.0-80.0
70.0,556.0,0.08,0.55,8.63,1.46,-0.34,0.13,17.8,70.0-80.0
70.0,851.0,1.11,1.27,9.66,-0.52,1.53,1.23,17.83,70.0-80.0
70.0,144.0,0.11,-1.12,9.35,-1.04,0.05,-0.62,17.83,70.0-80.0
70.0,501.0,-1.34,1.08,10.59,0.65,3.3,-1.0,17.82,70.0-80.0
70.0,1133.0,-1.02,0.84,9.32,3.14,-0.66,1.27,17.85,70.0-80.0
70.0,1003.0,-0.76,1.51,9.66,1.09,2.27,0.13,17.86,70.0-80.0
70.0,944.0,0.03,0.79,8.36,2.6,0.56,0.37,17.83,70.0-80.0
70.0,1318.0,0.4,1.34,9.2,1.12,1.65,-1.44,17.84,70.0-80.0
70.0,909.0,0.29,0.36,10.73,1.92,-3.43,2.05,17.82,70.0-80.0
70.0,1584.0,-1.25,1.44,10.14,1.32,3.33,-0.97,17.83,70.0-80.0
70.0,1426.0,-0.7,0.98,9.78,3.14,-1.57,1.63,17.86,70.0-80.0
70.0,1312.0,-0.27,0.62,8.51,0.65,1.57,-1.3,17.86,70.0-80.0
70.0,1648.0,0.43,-0.08,10.79,-0.52,-5.23,2.33,17.84,70.0-80.0
70.0,1535.0,0.55,1.38,8.76,0.91,2.07,-1.78,17.83,70.0-80.0
70.0,2112.0,0.63,0.1,10.82,1.34,-4.76,1.73,17.82,70.0-80.0
70.0,1063.0,-0.68,-1.28,9.78,-0.42,0.66,-1.69,17.83,70.0-80.0
70.0,1634.0,0.02,-0.27,11.14,-1.39,-2.2,2.01,17.84,70.0-80.0
70.0,1680.0,-0.51,0.24,8.61,0.67,1.04,-1.59,17.86,70.0-80.0
70.0,2388.0,0.3,-0.37,10.88,-0.54,-4.99,2.51,17.83,70.0-80.0
70.0,1831.0,0.56,-2.73,9.89,-2.13,-0.46,-1.03,17.84,70.0-80.0
70.0,1573.0,0.99,0.81,10.52,-1.07,0.7,2.05,17.83,70.0-80.0
70.0,1253.0,-0.43,-1.36,9.7,-0.48,1.08,-1.09,17.84,70.0-80.0
70.0,1198.0,0.12,0.03,11.11,-1.42,-2.05,2.39,17.84,70.0-80.0
70.0,1238.0,-1.02,-3.09,10.32,-3.27,-1.37,-1.66,17.85,70.0-80.0
70.0,1535.0,0.15,1.68,9.25,0.18,2.58,0.22,17.81,70.0-80.0
70.0,709.0,0.4,-3.16,10.19,-3.0,-1.27,-1.87,17.82,70.0-80.0
70.0,781.0,0.91,0.69,10.12,-1.27,1.54,1.15,17.82,70.0-80.0
70.0,816.0,-0.56,-1.66,9.8,-1.52,0.43,-1.61,17.84,70.0-80.0
70.0,282.0,-2.17,2.15,9.92,2.01,5.28,-0.72,17.83,70.0-80.0
70.0,862.0,-0.78,-3.18,10.27,-3.26,-1.27,-1.32,17.86,70.0-80.0
70.0,580.0,-0.4,1.9,9.26,0.94,3.68,0.63,17.87,70.0-80.0
70.0,639.0,-0.28,0.75,8.42,2.31,1.24,0.1,17.85,70.0-80.0
70.0,1824.0,-0.11,1.3,9.25,0.99,2.82,-1.47,17.83,70.0-80.0
70.0,1681.0,-0.2,-0.78,9.54,-0.2,0.12,-0.98,17.83,70.0-80.0
70.0,1531.0,-1.37,1.51,10.58,1.32,2.81,-1.12,17.82,70.0-80.0
70.0,1168.0,-1.04,1.04,9.31,3.11,-0.67,0.83,17.82,70.0-80.0
70.0,2273.0,-0.1,1.02,8.2,1.06,2.17,-1.96,17.82,70.0-80.0
70.0,1664.0,-0.25,0.83,8.43,2.05,0.46,-0.08,17.83,70.0-80.0
70.0,1490.0,-0.03,1.8,8.77,1.4,3.25,-1.59,17.82,70.0-80.0
70.0,1838.0,0.58,0.73,10.35,2.62,-3.01,2.08,17.81,70.0-80.0
70.0,2303.0,-0.55,-0.94,9.41,0.04,1.13,-1.05,17.85,70.0-80.0
70.0,2089.0,-0.69,1.26,9.61,3.86,-0.85,1.55,17.84,70.0-80.0
70.0,1535.0,-0.47,0.76,8.32,1.11,1.4,-1.56,17.83,70.0-80.0
70.0,2559.0,0.71,-0.24,10.92,-0.11,-5.1,2.17,17.86,70.0-80.0
70.0,2109.0,0.25,-2.54,9.94,-1.9,-0.84,-1.44,17.82,70.0-80.0
70.0,2297.0,0.72,0.36,10.74,1.86,-4.24,1.85,17.83,70.0-80.0
70.0,2145.0,-0.57,-1.11,9.52,-0.22,0.93,-1.56,17.81,70.0-80.0
70.0,2125.0,-0.16,0.18,11.21,-1.32,-2.26,2.24,17.82,70.0-80.0
70.0,2929.0,-0.9,-3.03,10.15,-2.94,-1.31,-1.44,17.85,70.0-80.0
70.0,1707.0,0.24,-0.18,10.85,-0.91,-5.14,2.36,17.83,70.0-80.0
70.0,2097.0,0.1,-2.79,9.91,-2.22,-0.76,-1.47,17.82,70.0-80.0
70.0,1836.0,0.79,1.0,10.16,-0.65,1.31,1.5,17.82,70.0-80.0
70.0,1196.0,-0.31,-1.75,9.69,-1.29,0.06,-1.38,17.84,70.0-80.0
70.0,1013.0,-0.13,0.04,11.22,-1.65,-1.92,2.05,17.82,70.0-80.0
70.0,1126.0,-0.76,-3.23,10.5,-2.92,-1.25,-1.53,17.82,70.0-80.0
70.0,817.0,-0.42,1.7,9.34,0.76,3.31,0.43,17.82,70.0-80.0
70.0,1840.0,-0.38,1.1,8.61,2.31,1.05,0.31,17.83,70.0-80.0
70.0,987.0,1.06,1.3,9.56,-0.45,2.49,1.52,17.83,70.0-80.0
70.0,1693.0,-0.29,-0.5,9.31,-0.46,-0.53,-0.59,17.83,70.0-80.0
70.0,987.0,-1.24,1.95,10.12,1.83,4.73,-1.15,17.82,70.0-80.0
70.0,873.0,-1.04,1.61,9.21,4.14,-0.78,1.2,17.82,70.0-80.0
70.0,2770.0,-0.99,1.92,9.68,1.43,4.44,-0.69,17.81,70.0-80.0
70.0,1589.0,-0.45,1.4,8.16,3.21,1.11,-0.1,17.85,70.0-80.0
70.0,2077.0,0.35,1.49,8.56,1.38,2.41,-1.95,17.84,70.0-80.0
70.0,1600.0,1.01,0.05,10.61,1.76,-4.15,2.01,17.82,70.0-80.0
70.0,1874.0,-1.22,2.02,9.8,2.01,3.75,-1.12,17.82,70.0-80.0
70.0,2397.0,-0.28,1.35,9.86,4.07,-1.27,1.91,17.83,70.0-80.0
70.0,2928.0,-0.39,0.29,8.42,1.08,0.66,-0.86,17.83,70.0-80.0
70.0,2668.0,0.58,-1.04,11.43,-1.62,-6.94,2.85,17.81,70.0-80.0
70.0,2554.0,0.76,1.63,7.96,1.96,2.4,-1.59,17.82,70.0-80.0
70.0,2928.0,1.08,-0.55,10.81,0.65,-5.89,1.91,17.83,70.0-80.0
70.0,1954.0,0.13,-2.46,9.75,-1.81,1.07,-1.67,17.83,70.0-80.0
70.0,2857.0,-0.2,-0.25,11.48,-2.43,-2.58,2.07,17.86,70.0-80.0
70.0,2205.0,-0.2,-0.49,8.9,0.09,1.66,-1.5,17.84,70.0-80.0
70.0,2928.0,0.41,-0.75,11.07,-1.73,-5.92,2.48,17.84,70.0-80.0
70.0,2751.0,0.14,-3.28,10.24,-3.1,-1.14,-1.38,17.82,70.0-80.0
70.0,2222.0,0.9,0.82,9.94,-1.24,1.4,1.49,17.83,70.0-80.0
70.0,2493.0,0.35,-1.99,9.85,-1.38,-0.37,-1.11,17.85,70.0-80.0
70.0,1472.0,-0.16,0.07,11.22,-1.35,-1.6,2.39,17.82,70.0-80.0
70.0,1408.0,-1.19,-3.1,10.28,-3.1,-1.8,-1.55,17.82,70.0-80.0
70.0,1410.0,0.33,1.33,9.37,0.38,3.3,0.25,17.84,70.0-80.0
70.0,1031.0,-0.26,-3.13,9.98,-2.75,-1.16,-1.55,17.84,70.0-80.0
70.0,1404.0,1.18,0.87,10.07,-0.86,1.08,1.43,17.83,70.0-80.0
70.0,1235.0,-0.34,-1.34,9.66,-1.07,-0.18,-1.06,17.82,70.0-80.0
70.0,889.0,-1.44,1.67,10.59,1.46,3.42,-0.48,17.81,70.0-80.0
70.0,885.0,-1.18,-2.8,10.15,-2.54,-0.78,-1.52,17.82,70.0-80.0
70.0,1535.0,-0.37,1.51,9.19,0.7,2.75,0.37,17.82,70.0-80.0
70.0,1137.0,0.3,0.05,8.67,1.09,0.17,-0.18,17.8,70.0-80.0
70.0,2278.0,-0.1,1.0,9.55,0.44,2.64,-1.87,17.79,70.0-80.0
70.0,2034.0,-0.12,-1.49,9.77,-1.24,-0.98,-1.11,17.82,70.0-80.0
70.0,1926.0,-1.49,1.12,10.59,0.67,3.52,-1.06,17.82,70.0-80.0
70.0,1492.0,-0.98,1.17,9.16,3.44,-0.21,1.08,17.83,70.0-80.0
70.0,1919.0,0.08,0.78,8.2,0.99,2.49,-1.76,17.82,70.0-80.0
70.0,1726.0,-0.61,0.92,8.53,2.18,0.29,0.51,17.83,70.0-80.0
70.0,2126.0,0.52,1.25,9.11,0.91,2.44,-1.27,17.81,70.0-80.0
70.0,2322.0,0.44,0.45,10.52,1.96,-3.2,2.28,17.84,70.0-80.0
70.0,2369.0,-0.25,-0.77,9.56,0.18,1.33,-1.24,17.84,70.0-80.0
70.0,2331.0,-0.94,1.17,9.81,3.61,-0.79,1.5,17.83,70.0-80.0
70.0,2289.0,-0.32,0.62,8.46,1.17,1.54,-1.81,17.83,70.0-80.0
70.0,2615.0,0.48,-0.05,10.79,-0.22,-5.02,2.05,17.83,70.0-80.0
70.0,2471.0,0.25,-2.69,9.93,-2.16,-0.81,-1.66,17.82,70.0-80.0
70.0,1967.0,0.72,0.33,10.46,1.51,-3.92,1.76,17.83,70.0-80.0
70.0,2559.0,-0.04,-1.41,9.48,-0.4,0.72,-1.58,17.84,70.0-80.0
70.0,1741.0,0.04,0.22,11.03,-1.24,-2.08,2.3,17.82,70.0-80.0
70.0,2290.0,-1.13,-3.11,10.18,-2.83,-1.27,-1.4,17.84,70.0-80.0
70.0,1766.0,0.3,-0.04,10.9,-0.6,-4.32,2.36,17.83,70.0-80.0
70.0,1886.0,-0.22,-2.69,9.79,-2.05,-0.92,-1.3,17.82,70.0-80.0
70.0,1321.0,0.96,1.11,9.84,-0.42,1.16,1.52,17.82,70.0-80.0
70.0,1095.0,0.16,-1.58,9.63,-1.38,-0.23,-1.01,17.82,70.0-80.0
70.0,1638.0,0.2,0.3,11.04,-1.36,-1.36,1.95,17.83,70.0-80.0
70.0,1554.0,-1.07,-3.24,10.32,-3.13,-0.75,-1.61,17.82,70.0-80.0
70.0,415.0,-0.53,1.4,9.36,0.53,3.13,0.04,17.82,70.0-80.0
70.0,658.0,-0.27,0.9,8.57,2.19,0.73,0.24,17.82,70.0-80.0
70.0,899.0,1.0,1.39,9.51,-0.39,1.8,1.29,17.83,70.0-80.0
70.0,1554.0,0.02,-0.54,9.13,-0.17,0.44,-0.68,17.83,70.0-80.0
70.0,1744.0,-1.02,1.54,10.4,1.38,3.42,-1.11,17.84,70.0-80.0
70.0,1751.0,-0.93,1.23,9.88,3.55,-1.91,1.5,17.83,70.0-80.0
70.0,1303.0,-1.21,1.69,9.53,1.38,4.18,-0.45,17.82,70.0-80.0
70.0,1245.0,-0.22,1.25,8.33,3.14,0.5,0.53,17.86,70.0-80.0
70.0,2213.0,0.43,1.43,8.8,1.14,1.39,-1.67,17.83,70.0-80.0
70.0,1649.0,0.39,0.45,10.56,1.64,-4.36,2.11,17.83,70.0-80.0
70.0,2128.0,-0.54,1.7,9.87,1.58,3.33,-1.26,17.84,70.0-80.0
70.0,1728.0,-0.67,1.25,10.35,3.46,-2.29,1.88,17.8,70.0-80.0
70.0,1991.0,-0.74,0.12,8.65,0.85,1.28,-1.37,17.81,70.0-80.0
70.0,2270.0,0.46,-0.5,11.13,-1.03,-5.26,2.48,17.83,70.0-80.0
70.0,1577.0,0.14,1.59,8.17,1.52,1.91,-1.73,17.82,70.0-80.0
70.0,2448.0,0.87,0.13,10.59,1.28,-5.04,1.98,17.8,70.0-80.0
70.0,1654.0,0.31,-2.34,9.61,-1.21,0.3,-1.59,17.82,70.0-80.0
70.0,1986.0,0.41,-0.55,11.44,-2.69,-2.41,1.95,17.83,70.0-80.0
70.0,1903.0,-0.52,-0.48,9.02,0.5,1.01,-1.37,17.83,70.0-80.0
70.0,1966.0,0.19,-0.86,11.23,-1.81,-5.1,2.69,17.82,70.0-80.0
70.0,2099.0,-0.03,-3.72,10.29,-3.7,-1.69,-1.21,17.82,70.0-80.0
70.0,2032.0,0.8,0.93,9.57,-1.06,2.3,1.46,17.83,70.0-80.0
70.0,969.0,0.49,-2.55,9.95,-1.84,-0.66,-0.91,17.83,70.0-80.0
70.0,1443.0,0.52,-0.11,11.12,-2.13,-0.44,2.11,17.82,70.0-80.0
70.0,347.0,-1.0,-3.04,10.44,-3.16,-0.84,-1.88,17.81,70.0-80.0
70.0,0.0,-0.96,1.75,9.27,0.96,3.95,-0.5,17.84,70.0-80.0
70.0,141.0,-0.25,-3.55,10.24,-3.42,-2.18,-1.91,17.82,70.0-80.0
70.0,394.0,1.05,0.92,9.36,-0.86,2.3,0.74,17.81,70.0-80.0
70.0,0.0,-0.0,-0.92,9.34,-0.68,0.44,-1.11,17.82,70.0-80.0
70.0,688.0,-1.58,1.5,10.44,1.28,4.07,-1.06,17.84,70.0-80.0
70.0,832.0,-1.18,-2.69,10.19,-2.75,-0.96,-1.08,17.83,70.0-80.0
70.0,455.0,-0.73,1.47,9.62,0.99,3.04,0.31,17.84,70.0-80.0
70.0,711.0,-0.1,0.62,8.46,1.99,-0.02,0.54,17.83,70.0-80.0
70.0,750.0,1.14,1.31,9.36,-0.11,2.04,1.26,17.82,70.0-80.0
70.0,694.0,0.19,-0.96,9.41,-0.34,0.47,-0.94,17.83,70.0-80.0
70.0,1381.0,-1.44,1.32,10.21,1.06,3.55,-1.34,17.83,70.0-80.0
70.0,1105.0,-0.92,1.26,9.62,3.4,-0.9,0.94,17.83,70.0-80.0
70.0,1347.0,-0.51,1.06,9.64,0.31,3.2,-0.42,17.81,70.0-80.0
70.0,619.0,-0.41,0.68,8.36,1.76,0.58,0.14,17.83,70.0-80.0
70.0,1266.0,0.37,1.33,9.08,0.89,2.78,-1.59,17.82,70.0-80.0
70.0,1197.0,0.04,0.76,10.52,2.27,-2.75,1.79,17.82,70.0-80.0
70.0,1375.0,-1.08,0.9,10.63,0.57,3.22,-0.88,17.82,70.0-80.0
70.0,1249.0,-1.25,1.04,9.6,3.12,-0.67,1.29,17.82,70.0-80.0
70.0,799.0,-0.66,1.13,8.25,1.49,2.75,-1.85,17.83,70.0-80.0
70.0,1535.0,0.71,0.66,10.03,1.18,-4.12,1.87,17.84,70.0-80.0
70.0,777.0,0.05,1.59,9.31,0.91,2.59,-1.95,17.84,70.0-80.0
70.0,1681.0,-0.02,1.41,9.99,3.32,-1.39,1.47,17.84,70.0-80.0
70.0,1795.0,-0.35,0.14,9.08,1.55,1.69,-1.61,17.82,70.0-80.0
70.0,934.0,-0.17,-0.08,11.0,-0.57,-4.24,2.69,17.81,70.0-80.0
70.0,1401.0,-0.67,1.99,7.94,2.54,2.78,-1.53,17.84,70.0-80.0
70.0,1061.0,0.58,0.56,10.2,1.28,-4.64,2.25,17.84,70.0-80.0
70.0,1476.0,0.79,-2.71,9.9,-1.61,-1.62,-1.14,17.84,70.0-80.0
70.0,733.0,0.96,-0.03,10.93,-1.96,-0.66,1.98,17.84,70.0-80.0
70.0,1277.0,-0.58,-0.73,9.22,0.93,1.11,-1.53,17.84,70.0-80.0
70.0,403.0,0.33,-0.24,11.16,-1.09,-3.33,2.45,17.83,70.0-80.0
70.0,1.0,-0.78,-3.59,10.52,-3.53,-2.79,-1.2,17.82,70.0-80.0
70.0,242.0,0.56,1.3,9.51,-0.16,2.27,1.03,17.82,70.0-80.0
70.0,0.0,0.22,-2.75,9.77,-2.08,-0.82,-1.27,17.81,70.0-80.0
70.0,42.0,1.07,0.78,10.34,-1.18,0.59,1.81,17.81,70.0-80.0
70.0,0.0,-0.6,-1.73,9.8,-1.49,-0.23,-1.23,17.83,70.0-80.0
70.0,581.0,-1.6,1.75,10.17,1.58,4.03,-0.65,17.82,70.0-80.0
70.0,671.0,-1.1,-2.87,10.26,-2.86,-1.36,-1.66,17.83,70.0-80.0
70.0,511.0,-0.28,1.74,9.12,0.89,4.0,0.21,17.83,70.0-80.0
70.0,551.0,0.07,0.36,8.55,1.49,-0.2,-0.01,17.82,70.0-80.0
70.0,1247.0,-0.0,1.03,9.33,0.67,2.79,-1.7,17.83,70.0-80.0
70.0,791.0,-0.04,-1.09,9.54,-0.66,-0.69,-0.94,17.81,70.0-80.0
70.0,903.0,-1.45,1.46,10.29,1.29,4.01,-0.97,17.82,70.0-80.0
70.0,575.0,-0.65,1.15,9.35,3.52,-0.87,1.64,17.85,70.0-80.0
70.0,1239.0,-0.26,0.7,8.34,0.86,2.0,-1.59,17.81,70.0-80.0
70.0,826.0,-0.31,1.01,8.56,2.65,0.58,0.57,17.84,70.0-80.0
70.0,1314.0,0.15,1.44,8.38,1.08,2.88,-1.67,17.82,70.0-80.0
70.0,1307.0,0.84,0.64,10.4,1.89,-3.68,1.95,17.82,70.0-80.0
70.0,1218.0,-0.15,-1.32,9.23,-0.05,1.57,-1.81,17.81,70.0-80.0
70.0,774.0,-0.7,1.61,9.83,4.07,-1.37,1.34,17.82,70.0-80.0
70.0,1970.0,-0.35,0.2,8.74,0.94,1.05,-1.82,17.84,70.0-80.0
70.0,1715.0,0.12,-0.64,10.95,-1.06,-4.94,2.24,17.8,70.0-80.0
70.0,1454.0,0.43,-3.7,10.33,-3.45,-2.15,-1.23,17.83,70.0-80.0
70.0,947.0,0.79,0.0,10.5,1.09,-4.58,2.34,17.8,70.0-80.0
70.0,1518.0,0.69,-2.5,9.66,-1.35,-0.4,-1.17,17.83,70.0-80.0
70.0,673.0,0.37,-0.21,11.29,-2.25,-1.14,2.24,17.8,70.0-80.0
70.0,321.0,-1.17,-3.19,10.29,-3.47,-0.81,-1.5,17.84,70.0-80.0
70.0,224.0,0.24,-0.71,11.52,-1.9,-4.88,2.54,17.82,70.0-80.0
70.0,0.0,-0.34,-3.76,10.23,-3.9,-1.28,-1.63,17.82,70.0-80.0
70.0,510.0,0.81,1.33,9.37,-0.69,2.41,0.69,17.82,70.0-80.0
70.0,193.0,-0.16,-0.2,8.97,0.41,1.02,-0.88,17.81,70.0-80.0
70.0,219.0,0.61,0.84,10.65,-1.3,0.01,1.69,17.82,70.0-80.0
70.0,594.0,-0.94,-2.31,9.92,-2.03,-0.69,-1.38,17.81,70.0-80.0
70.0,1022.0,-0.97,0.98,9.98,0.57,4.09,-0.65,17.8,70.0-80.0
70.0,1261.0,-0.71,0.76,8.72,2.45,0.08,0.74,17.81,70.0-80.0
70.0,752.0,0.31,0.84,9.47,-0.59,2.3,0.69,17.82,70.0-80.0
70.0,915.0,0.32,-0.34,8.76,0.35,0.41,-0.13,17.82,70.0-80.0
70.0,1226.0,-0.46,-0.93,8.43,1.15,6.06,-0.69,17.54,70.0-80.0
70.0,1757.0,-0.82,-3.16,8.78,-2.84,4.0,-3.3,17.53,70.0-80.0
70.0,1759.0,0.48,1.71,10.85,1.73,-6.41,2.91,17.51,70.0-80.0
70.0,1043.0,0.91,2.02,10.56,1.87,-1.72,0.28,17.54,70.0-80.0
70.0,0.0,-1.44,0.79,8.21,2.66,0.84,-0.6,17.52,70.0-80.0
70.0,337.0,-0.5,0.16,8.6,0.59,1.68,-0.6,17.51,70.0-80.0
70.0,1776.0,0.92,-0.75,10.31,-1.04,0.2,-2.16,17.51,70.0-80.0
70.0,1748.0,0.57,-0.57,12.0,-1.96,-4.75,2.71,17.5,70.0-80.0
70.0,1423.0,0.07,0.94,10.62,-0.04,-2.91,0.42,17.51,70.0-80.0
70.0,807.0,1.03,0.4,10.87,0.45,-6.5,3.65,17.52,70.0-80.0
70.0,307.0,-1.02,1.8,7.99,2.74,5.84,0.53,17.53,70.0-80.0
70.0,14.0,0.58,-0.89,8.1,-0.59,1.19,-1.37,17.53,70.0-80.0
70.0,0.0,-0.96,1.8,8.49,2.91,7.23,-0.89,17.51,70.0-80.0
70.0,656.0,0.37,-1.12,8.36,-0.31,1.98,-2.24,17.53,70.0-80.0
70.0,1009.0,0.46,-0.52,11.78,-1.68,-4.5,1.08,17.54,70.0-80.0
70.0,976.0,-0.34,-1.94,10.23,-1.93,0.11,-2.25,17.52,70.0-80.0
70.0,1462.0,0.49,-0.29,11.6,-1.71,-6.29,2.42,17.52,70.0-80.0
70.0,1624.0,-0.1,-2.53,9.88,-2.31,2.64,-1.53,17.52,70.0-80.0
70.0,1413.0,-0.48,0.75,9.07,1.63,-4.18,2.46,17.53,70.0-80.0
70.0,1600.0,0.82,0.24,10.8,-0.26,1.59,-0.13,17.51,70.0-80.0
70.0,1342.0,-0.79,0.75,8.75,1.87,-4.3,1.93,17.53,70.0-80.0
70.0,511.0,1.5,-0.03,11.25,-0.63,-0.52,-1.08,17.53,70.0-80.0
70.0,637.0,-0.35,-0.06,7.79,2.28,5.57,-1.11,17.53,70.0-80.0
70.0,453.0,-0.59,2.73,9.64,2.7,-1.97,0.1,17.53,70.0-80.0
70.0,288.0,0.04,0.13,9.09,2.36,4.58,-0.18,17.49,70.0-80.0
70.0,478.0,-1.26,2.49,8.4,2.68,-1.6,0.71,17.52,70.0-80.0
70.0,496.0,0.22,-1.63,10.36,-1.97,0.99,-1.11,17.52,70.0-80.0
70.0,89.0,-0.56,0.81,9.39,0.86,4.42,0.16,17.55,70.0-80.0
70.0,0.0,-0.54,-0.25,8.44,-0.43,0.34,-0.47,17.53,70.0-80.0
70.0,54.0,0.35,1.25,10.04,2.15,4.84,-0.83,17.52,70.0-80.0
70.0,211.0,-1.43,-2.59,10.15,-2.05,0.69,-2.22,17.53,70.0-80.0
70.0,192.0,-0.13,0.24,10.08,-1.79,-0.32,0.05,17.52,70.0-80.0
70.0,0.0,0.2,-1.93,10.45,-1.26,1.13,-1.99,17.53,70.0-80.0
70.0,420.0,-1.01,1.08,9.43,0.25,4.52,-0.37,17.51,70.0-80.0
70.0,231.0,-1.03,-2.31,9.24,-2.57,-0.87,-1.53,17.52,70.0-80.0
70.0,1065.0,1.69,-0.41,11.78,-2.42,-3.24,2.17,17.53,70.0-80.0
70.0,1135.0,-1.85,-2.69,10.11,-2.48,2.81,-1.43,17.52,70.0-80.0
70.0,1296.0,-0.16,0.89,9.62,-1.15,-0.37,0.74,17.52,70.0-80.0
70.0,1328.0,1.16,-1.97,10.0,-2.39,-1.13,-1.38,17.54,70.0-80.0
70.0,1453.0,0.62,-0.62,11.57,-1.17,-2.06,1.75,17.54,70.0-80.0
70.0,1205.0,-1.71,-2.66,9.93,-2.57,-0.12,-2.3,17.5,70.0-80.0
70.0,1312.0,0.69,0.36,10.15,-1.7,-0.98,0.48,17.53,70.0-80.0
70.0,1569.0,1.75,-1.38,10.39,-1.0,-1.34,-1.44,17.51,70.0-80.0
70.0,1342.0,-0.53,-0.54,11.31,-1.0,-1.88,2.34,17.53,70.0-80.0
70.0,1648.0,-0.95,-2.71,9.71,-3.04,-2.43,-1.17,17.54,70.0-80.0
70.0,1535.0,1.39,-0.02,10.93,-2.19,-0.6,1.75,17.52,70.0-80.0
70.0,1627.0,0.87,-1.2,10.18,-0.55,0.29,-0.74,17.52,70.0-80.0
70.0,1247.0,-0.67,-0.23,11.16,-0.54,-3.8,2.77,17.53,70.0-80.0
70.0,1946.0,-0.27,-2.58,9.73,-2.89,-2.14,-1.64,17.53,70.0-80.0
70.0,1402.0,1.57,-0.17,11.34,-1.79,-1.71,1.17,17.51,70.0-80.0
70.0,1781.0,0.31,-0.71,10.03,0.15,1.11,-1.61,17.54,70.0-80.0
70.0,1633.0,-0.87,-0.13,10.71,-0.11,-4.29,2.24,17.52,70.0-80.0
70.0,1601.0,0.41,-2.53,9.82,-2.8,-2.23,-1.49,17.52,70.0-80.0
70.0,1492.0,1.28,-0.1,11.15,-1.78,-0.87,1.84,17.53,70.0-80.0
70.0,1787.0,0.15,-0.54,9.98,0.22,0.67,-0.74,17.53,70.0-80.0
70.0,1662.0,-0.96,0.08,10.69,-0.11,-4.0,3.04,17.5,70.0-80.0
70.0,1812.0,0.27,-2.27,9.65,-2.23,-2.27,-1.15,17.54,70.0-80.0
70.0,1502.0,1.62,0.02,11.21,-1.36,-0.85,1.72,17.54,70.0-80.0
70.0,1667.0,-0.1,-0.39,9.73,0.62,1.85,-1.52,17.53,70.0-80.0
70.0,1618.0,-0.94,0.2,10.64,0.41,-3.97,2.22,17.52,70.0-80.0
70.0,2149.0,0.28,-2.55,9.64,-2.43,-1.85,-1.75,17.54,70.0-80.0
70.0,1383.0,1.64,-0.01,11.23,-1.73,-1.54,1.75,17.54,70.0-80.0
70.0,1955.0,0.11,-0.69,10.01,0.19,1.62,-1.26,17.52,70.0-80.0
70.0,1252.0,-0.84,0.08,10.66,-0.1,-3.63,2.75,17.53,70.0-80.0
70.0,1582.0,-0.03,-2.38,9.66,-2.54,-1.85,-1.18,17.51,70.0-80.0
70.0,1435.0,1.45,0.13,10.88,-1.52,-0.61,1.82,17.52,70.0-80.0
70.0,1342.0,0.4,-0.82,9.97,0.21,1.19,-1.38,17.52,70.0-80.0
70.0,1232.0,-0.79,-0.27,10.9,-0.3,-2.9,2.25,17.53,70.0-80.0
70.0,1504.0,-0.44,-2.97,9.8,-2.89,-1.97,-1.76,17.53,70.0-80.0
70.0,1428.0,1.41,0.19,10.74,-1.91,-0.5,1.2,17.53,70.0-80.0
70.0,1344.0,0.96,-1.63,10.39,-0.78,0.2,-1.44,17.53,70.0-80.0
70.0,1249.0,-0.91,-0.41,11.36,-1.35,-3.72,2.56,17.51,70.0-80.0
70.0,1321.0,-0.88,-3.1,9.94,-3.41,-1.01,-1.47,17.51,70.0-80.0
70.0,1476.0,1.31,0.44,10.21,-1.82,0.47,1.15,17.51,70.0-80.0
70.0,1443.0,1.09,-2.09,10.47,-1.82,-0.75,-1.24,17.54,70.0-80.0
70.0,1103.0,-0.66,-0.46,11.52,-1.39,-2.3,2.4,17.52,70.0-80.0
70.0,1437.0,-1.3,-2.88,10.13,-3.12,-1.25,-1.84,17.52,70.0-80.0
70.0,1842.0,1.09,0.92,9.58,-0.81,1.66,0.37,17.54,70.0-80.0
70.0,1168.0,1.08,-2.09,10.35,-1.76,-1.31,-1.73,17.51,70.0-80.0
70.0,1435.0,-0.37,0.12,11.33,-0.89,-1.02,1.93,17.52,70.0-80.0
70.0,1041.0,-1.9,-2.25,9.89,-2.02,-0.46,-1.5,17.53,70.0-80.0
70.0,1146.0,0.73,1.6,9.35,0.07,1.28,0.82,17.52,70.0-80.0
70.0,970.0,1.05,-2.39,9.91,-2.42,-0.35,-1.47,17.54,70.0-80.0
70.0,810.0,0.38,0.07,11.21,-1.39,-0.18,1.79,17.54,70.0-80.0
70.0,1195.0,-2.06,-2.54,10.13,-2.36,0.66,-1.82,17.52,70.0-80.0
70.0,640.0,-0.14,1.54,9.14,0.51,2.23,-0.08,17.54,70.0-80.0
70.0,415.0,0.5,-3.05,10.17,-3.35,-1.88,-1.79,17.53,70.0-80.0
70.0,855.0,1.05,0.27,10.85,-1.39,1.04,1.27,17.52,70.0-80.0
70.0,0.0,-1.41,-1.79,9.8,-1.38,1.49,-1.69,17.54,70.0-80.0
70.0,831.0,-1.24,1.88,9.05,1.43,4.03,-0.45,17.53,70.0-80.0
70.0,326.0,-0.69,-2.95,9.83,-3.36,-1.45,-1.72,17.52,70.0-80.0
70.0,544.0,1.34,1.05,10.04,-0.77,1.33,1.09,17.52,70.0-80.0
70.0,503.0,-0.26,-1.02,9.38,-0.26,2.03,-1.34,17.52,70.0-80.0
70.0,527.0,-1.46,1.67,10.03,1.38,3.77,-0.71,17.54,70.0-80.0
70.0,604.0,-1.84,-2.9,9.9,-2.84,-0.17,-1.95,17.54,70.0-80.0
70.0,390.0,0.81,1.15,9.29,-0.39,1.31,0.24,17.53,70.0-80.0
70.0,897.0,0.55,-0.55,8.86,0.41,2.11,-1.14,17.52,70.0-80.0
70.0,1133.0,-1.04,1.48,10.34,1.52,4.09,-1.11,17.52,70.0-80.0
70.0,748.0,-2.2,-2.36,10.23,-2.17,0.56,-1.52,17.51,70.0-80.0
70.0,1200.0,-0.24,1.39,9.1,0.51,2.12,0.28,17.54,70.0-80.0
70.0,478.0,0.73,0.41,8.28,1.51,0.95,-0.13,17.53,70.0-80.0
70.0,1344.0,-0.19,1.91,9.93,2.02,3.16,-0.85,17.52,70.0-80.0
70.0,1344.0,-1.11,-1.82,9.84,-1.29,2.24,-1.47,17.53,70.0-80.0
70.0,1073.0,-1.36,1.53,9.5,0.94,3.45,-0.65,17.5,70.0-80.0
70.0,1774.0,-0.08,0.79,8.26,2.22,0.69,-0.04,17.51,70.0-80.0
70.0,856.0,0.38,1.87,9.01,1.7,2.65,-1.46,17.53,70.0-80.0
70.0,1535.0,0.04,-1.14,9.41,-0.43,1.51,-1.4,17.52,70.0-80.0
70.0,1706.0,-1.33,1.08,10.33,0.73,3.78,-1.2,17.52,70.0-80.0
70.0,1168.0,-1.31,0.67,8.58,2.34,0.61,0.42,17.54,70.0-80.0
70.0,1521.0,0.34,1.85,8.07,2.04,3.16,-1.21,17.51,70.0-80.0
70.0,1535.0,0.49,-0.13,8.55,0.53,1.83,-0.5,17.52,70.0-80.0
70.0,1643.0,-0.76,2.2,9.96,2.47,5.0,-0.95,17.51,70.0-80.0
70.0,1035.0,-1.23,1.27,9.51,3.73,-0.89,1.18,17.52,70.0-80.0
70.0,1388.0,-0.13,1.15,8.29,1.86,1.56,-1.23,17.51,70.0-80.0
70.0,1719.0,-0.22,1.18,7.81,2.77,1.98,-0.47,17.49,70.0-80.0
70.0,1423.0,0.28,2.18,9.19,2.42,3.46,-1.46,17.52,70.0-80.0
70.0,1936.0,-0.19,0.44,10.45,2.45,-2.61,1.41,17.5,70.0-80.0
70.0,1898.0,-0.73,-0.16,9.0,0.56,1.16,-1.18,17.5,70.0-80.0
70.0,2031.0,-0.85,1.06,8.7,2.91,0.08,0.56,17.5,70.0-80.0
70.0,2057.0,0.51,1.64,8.27,1.67,1.86,-1.01,17.53,70.0-80.0
70.0,1809.0,1.0,0.03,10.7,1.2,-4.75,2.04,17.5,70.0-80.0
70.0,1648.0,-0.38,-1.3,10.09,-0.48,0.58,-1.34,17.52,70.0-80.0
70.0,2016.0,-1.21,0.68,9.43,2.85,-1.21,0.95,17.49,70.0-80.0
70.0,2259.0,0.04,0.97,8.22,1.25,1.54,-1.34,17.5,70.0-80.0
70.0,2520.0,1.1,0.01,10.37,0.7,-5.36,2.05,17.51,70.0-80.0
70.0,2559.0,0.5,-2.04,10.14,-1.24,-0.06,-1.38,17.52,70.0-80.0
70.0,2544.0,-0.51,0.36,10.43,2.09,-2.66,1.67,17.5,70.0-80.0
70.0,1899.0,-0.69,-0.19,9.01,0.22,1.2,-1.01,17.54,70.0-80.0
70.0,2530.0,0.52,-0.28,10.59,-0.89,-5.01,2.63,17.51,70.0-80.0
70.0,2390.0,0.83,-2.34,10.09,-2.34,-0.61,-1.47,17.51,70.0-80.0
70.0,2112.0,0.78,-0.04,10.71,1.09,-4.07,1.67,17.5,70.0-80.0
70.0,2559.0,-0.83,-0.89,9.88,-0.31,0.64,-1.67,17.5,70.0-80.0
70.0,2386.0,-0.29,-0.07,10.75,-0.55,-3.77,1.98,17.53,70.0-80.0
70.0,2022.0,0.13,-2.72,10.13,-2.98,-1.91,-2.05,17.49,70.0-80.0
70.0,2173.0,1.35,-0.03,10.55,0.57,-4.29,1.87,17.51,70.0-80.0
70.0,2011.0,-0.0,-1.81,10.16,-1.12,0.18,-1.18,17.52,70.0-80.0
70.0,1999.0,-0.28,-0.14,11.1,-1.1,-1.92,2.63,17.55,70.0-80.0
70.0,2621.0,-1.26,-2.74,9.98,-2.71,-1.1,-1.41,17.53,70.0-80.0
70.0,2270.0,0.67,-0.29,10.45,-0.2,-4.36,2.51,17.51,70.0-80.0
70.0,2493.0,1.01,-2.51,9.91,-2.23,-0.63,-1.49,17.5,70.0-80.0
70.0,2221.0,0.26,0.24,11.16,-1.29,0.06,1.66,17.51,70.0-80.0
70.0,1795.0,-1.91,-2.34,10.0,-2.03,0.81,-2.08,17.52,70.0-80.0
70.0,1979.0,-0.12,-0.37,10.74,-1.27,-3.66,2.22,17.51,70.0-80.0
70.0,1955.0,0.41,-2.73,10.12,-3.07,-1.59,-1.69,17.53,70.0-80.0
70.0,1676.0,1.04,1.09,10.28,-0.62,0.95,1.47,17.53,70.0-80.0
70.0,1272.0,-0.74,-1.46,10.02,-0.84,0.59,-1.08,17.53,70.0-80.0
70.0,1008.0,-0.42,0.18,11.02,-0.45,-1.68,2.46,17.51,70.0-80.0
70.0,944.0,-1.26,-2.87,9.69,-2.63,-0.96,-1.69,17.51,70.0-80.0
70.0,1250.0,1.03,0.99,9.39,-0.3,1.8,0.54,17.53,70.0-80.0
70.0,1185.0,0.34,-0.76,8.96,0.01,1.75,-1.08,17.53,70.0-80.0
70.0,1316.0,0.33,0.35,11.26,-1.04,-0.82,1.91,17.51,70.0-80.0
70.0,586.0,-1.79,-2.44,10.28,-2.19,0.11,-1.69,17.54,70.0-80.0
70.0,1170.0,-0.29,1.37,9.45,0.33,2.01,-0.01,17.51,70.0-80.0
70.0,1089.0,0.56,0.12,8.48,1.03,1.02,-0.16,17.52,70.0-80.0
70.0,1184.0,0.91,0.91,10.24,-0.81,0.66,1.41,17.52,70.0-80.0
70.0,1888.0,-0.44,-1.74,9.8,-1.24,0.72,-1.14,17.51,70.0-80.0
70.0,1526.0,-1.41,1.16,10.22,0.54,2.7,-0.62,17.51,70.0-80.0
70.0,1637.0,-0.65,0.66,8.66,2.33,0.26,0.59,17.52,70.0-80.0
70.0,1683.0,0.65,0.95,9.59,-0.37,1.13,0.74,17.52,70.0-80.0
70.0,1526.0,0.6,-0.58,8.88,0.28,1.34,-0.56,17.51,70.0-80.0
70.0,1489.0,-1.13,1.37,10.37,1.18,3.4,-0.97,17.5,70.0-80.0
70.0,1893.0,-1.19,0.63,9.7,2.68,-0.79,1.05,17.51,70.0-80.0
70.0,2095.0,-0.76,1.37,9.67,0.41,1.88,-0.02,17.51,70.0-80.0
70.0,2087.0,0.36,0.5,8.44,1.55,-0.06,0.08,17.51,70.0-80.0
70.0,2047.0,0.15,1.51,9.44,0.94,2.72,-1.53,17.51,70.0-80.0
70.0,1747.0,-0.41,0.63,10.46,2.1,-2.09,1.35,17.52,70.0-80.0
70.0,2239.0,-1.31,1.05,10.48,0.41,3.1,-0.85,17.54,70.0-80.0
70.0,1963.0,-1.44,0.89,8.76,2.76,0.53,0.66,17.53,70.0-80.0
70.0,2130.0,0.18,1.67,8.12,1.96,3.22,-1.29,17.53,70.0-80.0
70.0,1920.0,1.19,0.66,10.09,1.9,-4.14,2.1,17.51,70.0-80.0
70.0,1831.0,-0.59,1.64,9.77,1.52,4.42,-1.17,17.5,70.0-80.0
70.0,1909.0,-1.14,1.07,9.93,3.35,-0.38,1.32,17.52,70.0-80.0
70.0,2112.0,-0.68,1.02,8.13,1.96,2.84,-1.43,17.5,70.0-80.0
70.0,2311.0,0.7,0.56,10.06,0.88,-4.9,2.19,17.52,70.0-80.0
70.0,2151.0,0.2,2.03,8.63,1.76,3.51,-1.64,17.53,70.0-80.0
70.0,2353.0,0.34,0.86,10.31,2.41,-2.5,1.41,17.54,70.0-80.0
70.0,2194.0,-0.63,-0.2,9.2,0.8,1.83,-1.59,17.52,70.0-80.0
70.0,2490.0,-0.17,0.03,10.7,-0.39,-4.17,2.31,17.52,70.0-80.0
70.0,1943.0,-0.32,1.69,7.96,1.95,2.75,-1.56,17.51,70.0-80.0
70.0,2287.0,1.23,0.52,10.09,1.22,-4.59,1.85,17.51,70.0-80.0
70.0,2288.0,0.53,-1.76,9.88,-0.8,-0.14,-1.38,17.51,70.0-80.0
70.0,2559.0,0.12,-0.25,11.32,-1.03,-2.91,2.54,17.51,70.0-80.0
70.0,2281.0,-1.04,0.68,8.3,1.84,2.36,-1.41,17.5,70.0-80.0
70.0,2559.0,0.47,0.1,10.31,0.39,-5.14,2.49,17.49,70.0-80.0
70.0,2626.0,1.04,-3.02,9.88,-2.46,-1.45,-1.26,17.49,70.0-80.0
70.0,2272.0,1.01,-0.18,11.33,-1.87,-0.99,2.14,17.5,70.0-80.0
70.0,2295.0,-0.57,-0.83,9.63,0.44,0.84,-1.23,17.54,70.0-80.0
70.0,2166.0,0.06,-0.56,11.15,-1.21,-4.39,2.51,17.52,70.0-80.0
70.0,2458.0,-0.21,-3.49,10.14,-3.94,-2.49,-1.73,17.49,70.0-80.0
70.0,2267.0,1.26,0.33,10.37,-1.84,0.58,0.85,17.53,70.0-80.0
70.0,2320.0,0.85,-2.3,9.93,-1.42,-0.32,-1.5,17.51,70.0-80.0
70.0,1911.0,0.08,-0.42,11.62,-2.07,-2.66,2.33,17.52,70.0-80.0
70.0,1361.0,-1.72,-3.17,10.37,-3.3,-1.05,-1.56,17.52,70.0-80.0
70.0,1430.0,0.27,1.27,9.28,-0.2,2.26,0.57,17.52,70.0-80.0
70.0,1926.0,0.88,-2.98,10.07,-2.81,-1.6,-1.3,17.52,70.0-80.0
70.0,1493.0,0.76,0.34,10.98,-1.36,0.05,1.98,17.53,70.0-80.0
70.0,949.0,-1.51,-2.14,10.17,-1.82,1.17,-1.44,17.52,70.0-80.0
70.0,1661.0,-1.09,1.72,9.34,1.15,3.36,-0.3,17.5,70.0-80.0
70.0,930.0,-0.58,-3.27,10.24,-3.47,-2.01,-1.53,17.51,70.0-80.0
70.0,917.0,0.94,0.86,9.92,-0.89,1.34,0.91,17.52,70.0-80.0
70.0,1071.0,-0.3,-1.0,9.38,-0.48,1.68,-1.2,17.53,70.0-80.0
70.0,997.0,-1.52,1.58,10.13,1.31,4.56,-1.14,17.52,70.0-80.0
70.0,1211.0,-1.78,-3.12,10.45,-3.39,-0.92,-1.66,17.52,70.0-80.0
70.0,1247.0,0.07,0.98,9.59,-0.63,1.92,0.24,17.51,70.0-80.0
70.0,1150.0,0.52,0.25,8.3,1.06,2.06,-0.62,17.5,70.0-80.0
70.0,1008.0,-0.79,2.39,9.74,2.59,5.07,-1.2,17.49,70.0-80.0
70.0,1575.0,-1.51,-2.38,10.22,-2.34,1.28,-1.52,17.52,70.0-80.0
70.0,1615.0,-1.44,1.84,9.37,1.18,4.18,-0.6,17.5,70.0-80.0
70.0,1535.0,-0.1,1.3,8.06,3.06,2.01,-0.19,17.51,70.0-80.0
70.0,1606.0,0.33,2.14,8.98,2.27,2.67,-1.32,17.53,70.0-80.0
70.0,1696.0,-0.35,-0.57,9.33,0.09,1.91,-1.27,17.5,70.0-80.0
70.0,1395.0,-1.72,2.03,10.1,1.89,4.58,-1.08,17.51,70.0-80.0
70.0,2007.0,-1.14,1.39,8.41,3.6,0.93,0.5,17.52,70.0-80.0
70.0,1535.0,0.51,2.18,7.89,2.56,2.62,-1.23,17.49,70.0-80.0
70.0,1843.0,0.19,0.42,8.39,1.25,2.58,-0.79,17.51,70.0-80.0
70.0,1895.0,-1.15,2.72,9.97,3.0,4.68,-1.23,17.52,70.0-80.0
70.0,1345.0,-0.93,1.49,9.45,4.18,-0.79,1.35,17.54,70.0-80.0
70.0,1643.0,-0.3,1.22,8.17,1.89,1.17,-1.06,17.5,70.0-80.0
70.0,1580.0,-0.32,1.26,8.3,3.02,1.88,-0.14,17.53,70.0-80.0
70.0,1874.0,-0.0,2.32,8.99,2.45,2.79,-1.37,17.52,70.0-80.0
70.0,2139.0,0.07,0.61,10.41,2.62,-2.41,1.43,17.5,70.0-80.0
70.0,1515.0,-0.61,-0.24,9.21,0.41,0.69,-1.27,17.5,70.0-80.0
70.0,2239.0,-1.15,0.78,8.85,2.68,-0.02,0.51,17.51,70.0-80.0
70.0,1757.0,0.08,1.72,8.13,1.6,1.85,-1.47,17.53,70.0-80.0
70.0,2123.0,1.26,0.7,10.08,2.01,-3.14,1.69,17.51,70.0-80.0
70.0,1995.0,-0.04,-0.91,9.63,0.25,0.66,-1.4,17.52,70.0-80.0
70.0,2086.0,-1.46,1.3,9.92,3.46,-0.49,1.09,17.49,70.0-80.0
70.0,2065.0,-0.5,1.69,7.82,2.47,2.06,-1.18,17.51,70.0-80.0
70.0,2426.0,1.5,0.21,10.46,0.85,-6.23,2.59,17.52,70.0-80.0
70.0,2320.0,0.95,-2.2,9.92,-1.3,-1.39,-0.98,17.51,70.0-80.0
70.0,2559.0,-0.41,1.1,10.09,3.29,-1.83,1.52,17.51,70.0-80.0
70.0,1888.0,-0.64,0.42,8.74,1.89,2.56,-1.3,17.52,70.0-80.0
70.0,2104.0,0.23,0.41,10.33,0.36,-5.34,2.49,17.52,70.0-80.0
70.0,2213.0,0.67,-3.11,10.12,-2.72,-2.29,-1.5,17.52,70.0-80.0
70.0,2357.0,1.16,1.28,9.95,2.63,-4.18,1.75,17.52,70.0-80.0
70.0,2096.0,-0.05,-1.4,9.83,-0.02,0.15,-1.63,17.52,70.0-80.0
70.0,2657.0,-0.15,-1.07,11.55,-2.07,-4.24,2.28,17.52,70.0-80.0
70.0,2154.0,-0.79,-4.07,10.7,-4.69,-2.88,-1.59,17.51,70.0-80.0
70.0,2101.0,0.83,-0.33,10.46,-0.04,-6.0,2.39,17.5,70.0-80.0
70.0,2559.0,1.19,-3.51,10.29,-2.97,-2.17,-1.11,17.51,70.0-80.0
70.0,2240.0,0.48,-0.49,11.21,-2.31,-0.6,2.45,17.53,70.0-80.0
70.0,2245.0,-1.52,-3.1,10.63,-3.5,-0.58,-1.29,17.51,70.0-80.0
70.0,1895.0,0.06,-0.38,11.15,-0.88,-4.3,2.92,17.51,70.0-80.0
70.0,1310.0,-0.1,-3.63,10.3,-3.77,-3.17,-1.3,17.52,70.0-80.0
70.0,1601.0,1.32,0.22,10.53,-2.0,0.46,1.11,17.54,70.0-80.0
70.0,1102.0,0.4,-2.35,10.08,-1.36,-0.66,-1.55,17.53,70.0-80.0
70.0,775.0,0.1,-0.55,11.48,-2.07,-2.43,2.1,17.52,70.0-80.0
70.0,496.0,-1.37,-3.49,10.55,-4.03,-1.1,-1.82,17.53,70.0-80.0
70.0,1902.0,0.17,1.08,9.29,-0.62,2.96,0.07,17.53,70.0-80.0
70.0,317.0,0.49,-3.31,10.26,-3.27,-2.38,-1.24,17.52,70.0-80.0
70.0,974.0,0.95,0.25,10.96,-1.79,-0.0,2.02,17.5,70.0-80.0
70.0,633.0,-1.17,-2.15,9.85,-2.03,1.45,-1.26,17.51,70.0-80.0
70.0,1138.0,-1.26,1.61,9.52,1.18,4.2,-0.66,17.51,70.0-80.0
70.0,592.0,-0.98,-3.64,10.51,-3.9,-1.72,-1.66,17.52,70.0-80.0
70.0,624.0,0.77,0.76,9.92,-1.23,1.11,0.39,17.52,70.0-80.0
70.0,845.0,0.01,-0.24,8.77,0.39,2.87,-1.29,17.51,70.0-80.0
70.0,1339.0,-1.41,2.2,9.94,2.25,4.94,-1.32,17.51,70.0-80.0
70.0,895.0,-1.73,-2.67,10.5,-2.98,-0.31,-1.53,17.53,70.0-80.0
70.0,811.0,-0.82,1.33,9.38,0.07,2.84,-0.16,17.5,70.0-80.0
70.0,1330.0,0.13,0.66,8.21,1.78,1.78,-0.24,17.5,70.0-80.0
70.0,1215.0,-0.3,2.22,9.09,2.28,4.93,-1.14,17.51,70.0-80.0
70.0,1301.0,-0.74,-1.81,9.84,-1.7,0.9,-1.09,17.52,70.0-80.0
70.0,987.0,-1.62,1.52,10.01,1.02,4.18,-0.6,17.51,70.0-80.0
70.0,1111.0,-0.73,1.07,8.3,2.77,0.99,0.33,17.5,70.0-80.0
70.0,1502.0,0.14,2.69,8.67,2.85,3.31,-0.85,17.51,70.0-80.0
70.0,1063.0,0.19,-1.45,9.24,-1.2,2.62,-1.35,17.51,70.0-80.0
70.0,1139.0,-1.36,1.38,10.0,1.17,5.02,-0.97,17.5,70.0-80.0
70.0,627.0,-1.31,0.6,7.94,2.07,1.53,-0.34,17.49,70.0-80.0
70.0,1159.0,0.11,2.38,9.03,2.3,3.28,-0.72,17.51,70.0-80.0
70.0,1215.0,-0.11,-2.25,10.64,-1.97,1.89,-1.46,17.51,70.0-80.0
70.0,765.0,-1.22,0.29,10.07,-0.8,2.35,-0.16,17.52,70.0-80.0
70.0,422.0,-0.74,-1.49,8.93,-1.74,0.14,-1.3,17.52,70.0-80.0
70.0,481.0,0.69,0.4,10.33,0.28,4.0,-0.77,17.5,70.0-80.0
