Speed,Voice,Acceleration X,Acceleration Y,Acceleration Z,Gyro X,Gyro Y,Gyro Z,Temperature,Speed_Range
70.0,755.0,-0.92,-3.46,10.41,-3.77,0.2,-2.74,19.57,70.0-80.0
70.0,2362.0,-1.26,-0.41,8.96,-0.71,4.5,-0.42,19.58,70.0-80.0
70.0,2928.0,-0.08,1.44,10.21,0.25,-3.05,0.54,19.56,70.0-80.0
70.0,1954.0,-0.17,2.06,10.81,3.53,-1.39,1.64,19.56,70.0-80.0
70.0,1635.0,-0.15,0.46,9.2,0.97,2.11,-0.59,19.58,70.0-80.0
70.0,942.0,0.13,-1.07,8.94,-0.4,-1.18,-2.39,19.57,70.0-80.0
70.0,1329.0,-0.7,-0.83,9.91,-2.48,2.15,-0.68,19.57,70.0-80.0
70.0,2518.0,0.81,-0.2,9.86,0.3,-0.84,-1.46,19.57,70.0-80.0
70.0,2927.0,0.92,-0.49,12.09,-2.63,-3.53,3.11,19.57,70.0-80.0
70.0,2699.0,-0.34,0.07,10.1,-0.54,-0.99,0.25,19.59,70.0-80.0
70.0,2260.0,-0.32,0.78,10.01,1.78,-3.31,1.75,19.57,70.0-80.0
70.0,1454.0,-0.9,1.57,8.27,2.76,5.8,0.43,19.57,70.0-80.0
70.0,1157.0,-0.57,0.14,9.47,1.23,-2.12,0.01,19.59,70.0-80.0
70.0,931.0,-0.78,1.11,8.54,2.1,7.54,-1.93,19.55,70.0-80.0
70.0,1715.0,-1.65,-1.92,8.91,-1.84,1.92,-2.63,19.57,70.0-80.0
70.0,1349.0,2.22,0.06,11.39,-1.13,-0.6,-0.31,19.59,70.0-80.0
70.0,1389.0,-1.55,-1.77,8.41,-2.37,2.4,-1.73,19.57,70.0-80.0
70.0,1615.0,2.82,0.45,11.52,-0.86,-1.74,0.91,19.6,70.0-80.0
70.0,1099.0,-0.23,-1.35,9.39,-0.57,3.48,-0.79,19.58,70.0-80.0
70.0,1842.0,-0.02,0.78,11.23,-1.13,-8.32,3.46,19.55,70.0-80.0
70.0,1414.0,-0.02,-1.99,10.92,-0.69,2.96,-0.89,19.57,70.0-80.0
70.0,2160.0,-1.29,1.16,9.71,-0.52,-4.01,1.9,19.54,70.0-80.0
70.0,1748.0,1.8,-0.15,10.38,-0.11,-2.73,-1.4,19.57,70.0-80.0
70.0,1561.0,0.22,0.08,9.88,1.34,0.96,0.89,19.56,70.0-80.0
70.0,1727.0,-0.04,-1.23,9.41,-1.41,-4.56,-1.73,19.57,70.0-80.0
70.0,1151.0,1.44,-0.25,11.66,-1.26,-1.62,1.7,19.57,70.0-80.0
70.0,1625.0,0.23,0.32,9.55,1.09,1.62,-0.86,19.57,70.0-80.0
70.0,1261.0,-0.15,0.58,9.59,0.64,-3.66,2.83,19.55,70.0-80.0
70.0,1808.0,0.92,-1.08,9.8,-1.29,-1.83,-0.6,19.56,70.0-80.0
70.0,1697.0,0.97,0.02,11.87,-0.07,-2.87,2.94,19.56,70.0-80.0
70.0,1521.0,-1.19,1.01,8.23,1.4,3.72,-1.0,19.55,70.0-80.0
70.0,1535.0,0.71,0.53,9.41,1.54,-4.9,1.84,19.57,70.0-80.0
70.0,1351.0,1.19,-0.75,10.09,-0.16,0.75,-1.95,19.56,70.0-80.0
70.0,1653.0,-0.17,0.44,10.91,1.09,-2.2,2.02,19.55,70.0-80.0
70.0,1264.0,-0.76,1.21,8.33,1.43,2.43,-1.55,19.57,70.0-80.0
70.0,1401.0,0.47,0.78,9.19,1.29,-2.91,2.01,19.59,70.0-80.0
70.0,2096.0,1.43,-0.5,10.1,-0.05,-1.04,-0.71,19.57,70.0-80.0
70.0,1614.0,-0.12,0.26,11.18,-0.2,-1.53,3.04,19.58,70.0-80.0
70.0,1668.0,-1.03,1.24,7.92,1.4,2.96,-0.97,19.56,70.0-80.0
70.0,1727.0,0.6,0.74,9.43,1.14,-3.83,2.11,19.57,70.0-80.0
70.0,1456.0,1.3,-1.53,9.59,-0.62,-0.69,-1.81,19.56,70.0-80.0
70.0,1445.0,0.72,-0.12,11.62,-0.69,-2.23,1.69,19.56,70.0-80.0
70.0,1609.0,-0.79,0.39,8.86,1.2,2.79,-2.17,19.57,70.0-80.0
70.0,1455.0,-0.14,0.16,9.82,0.38,-4.5,1.85,19.57,70.0-80.0
70.0,2171.0,0.98,-2.33,9.9,-1.97,-1.92,-1.43,19.55,70.0-80.0
70.0,1675.0,0.9,0.63,10.91,-0.81,-0.09,2.59,19.55,70.0-80.0
70.0,1975.0,0.23,-0.31,9.84,0.45,0.24,-0.76,19.57,70.0-80.0
70.0,1645.0,-0.28,0.23,10.8,-0.39,-2.46,2.95,19.57,70.0-80.0
70.0,1180.0,-0.69,-3.07,10.25,-2.87,-3.31,-1.08,19.55,70.0-80.0
70.0,1476.0,0.81,0.93,9.71,-0.88,1.65,1.03,19.55,70.0-80.0
70.0,1535.0,0.66,-1.85,9.69,-0.88,-1.42,-2.01,19.56,70.0-80.0
70.0,1124.0,0.79,0.19,11.36,-0.98,-1.3,1.55,19.55,70.0-80.0
70.0,975.0,-1.15,-3.41,10.87,-3.87,-1.74,-2.08,19.57,70.0-80.0
70.0,1583.0,-0.23,1.19,9.53,-0.02,3.08,-0.07,19.54,70.0-80.0
70.0,1131.0,-0.44,-3.56,10.26,-3.23,-2.23,-1.27,19.54,70.0-80.0
70.0,1361.0,0.71,1.01,9.76,-1.0,0.79,2.08,19.55,70.0-80.0
70.0,1535.0,0.62,-1.5,9.58,-1.9,0.78,-0.34,19.55,70.0-80.0
70.0,1281.0,-0.93,1.57,10.12,0.45,3.84,-0.62,19.53,70.0-80.0
70.0,1530.0,-0.57,-3.48,11.1,-3.87,-1.68,-1.35,19.53,70.0-80.0
70.0,2003.0,-0.67,1.4,9.09,0.18,4.42,-0.42,19.54,70.0-80.0
70.0,1842.0,-0.36,1.35,8.31,2.6,1.89,-0.59,19.55,70.0-80.0
70.0,1927.0,-0.05,2.23,8.2,1.51,3.37,-2.33,19.54,70.0-80.0
70.0,1438.0,0.2,-0.61,9.1,-1.06,0.64,-1.43,19.54,70.0-80.0
70.0,2131.0,-0.83,2.35,9.62,1.49,5.0,-1.12,19.54,70.0-80.0
70.0,2317.0,-0.37,2.09,9.43,4.76,0.88,2.24,19.54,70.0-80.0
70.0,1859.0,0.0,0.59,8.34,0.88,0.05,-1.05,19.55,70.0-80.0
70.0,1984.0,-0.81,1.92,8.54,3.4,2.04,0.97,19.56,70.0-80.0
70.0,2124.0,-0.01,1.7,7.99,1.28,2.59,-1.72,19.55,70.0-80.0
70.0,2173.0,1.17,0.66,10.34,2.22,-4.11,2.01,19.54,70.0-80.0
70.0,2126.0,0.26,-1.61,9.8,-0.3,-1.54,-1.85,19.53,70.0-80.0
70.0,1616.0,0.23,1.88,9.85,4.57,-0.24,1.35,19.54,70.0-80.0
70.0,2001.0,-0.11,-0.06,9.28,0.54,-0.43,-1.98,19.58,70.0-80.0
70.0,2305.0,-0.01,-0.65,11.32,-1.41,-4.64,2.27,19.56,70.0-80.0
70.0,1765.0,-0.18,-3.74,10.51,-3.29,-2.18,-1.08,19.56,70.0-80.0
70.0,1779.0,0.57,0.01,10.44,0.53,-4.44,2.83,19.55,70.0-80.0
70.0,1648.0,0.6,-2.51,10.05,-1.42,-1.74,-0.91,19.56,70.0-80.0
70.0,1040.0,0.47,-0.09,11.0,-2.37,-0.7,1.98,19.54,70.0-80.0
70.0,743.0,-0.13,-3.04,10.75,-3.39,-0.72,-1.69,19.57,70.0-80.0
70.0,529.0,0.24,-0.6,11.37,-1.73,-3.4,1.95,19.55,70.0-80.0
70.0,0.0,-0.89,-3.39,10.96,-3.15,-2.59,-1.7,19.55,70.0-80.0
70.0,591.0,0.14,1.74,8.8,0.36,4.04,0.33,19.55,70.0-80.0
70.0,194.0,0.43,-0.23,8.63,-0.14,0.61,-0.72,19.55,70.0-80.0
70.0,397.0,0.36,0.89,10.4,-1.42,1.1,1.59,19.53,70.0-80.0
70.0,955.0,0.2,-2.15,10.06,-2.8,-0.47,-1.26,19.56,70.0-80.0
70.0,880.0,-1.0,1.64,9.61,0.94,5.07,-0.45,19.55,70.0-80.0
70.0,688.0,-0.47,1.67,8.91,3.66,1.37,1.12,19.54,70.0-80.0
70.0,1078.0,-0.25,1.44,9.07,0.25,4.46,0.18,19.55,70.0-80.0
70.0,607.0,-0.35,0.56,8.46,1.32,1.45,-0.22,19.55,70.0-80.0
70.0,1182.0,0.31,1.33,8.91,0.41,2.62,-2.05,19.56,70.0-80.0
70.0,1018.0,0.54,1.17,10.13,3.14,-2.09,1.81,19.53,70.0-80.0
70.0,688.0,-0.53,1.57,9.85,0.79,4.1,-1.37,19.55,70.0-80.0
70.0,918.0,-0.33,1.85,9.54,4.3,0.61,1.47,19.55,70.0-80.0
70.0,1146.0,-0.29,0.76,8.46,0.79,1.07,-1.66,19.54,70.0-80.0
70.0,1271.0,0.28,-0.1,10.9,-0.16,-4.87,2.66,19.55,70.0-80.0
70.0,1345.0,0.23,1.73,8.34,0.99,2.17,-1.61,19.55,70.0-80.0
70.0,1586.0,0.57,0.78,10.08,2.3,-3.22,2.46,19.55,70.0-80.0
70.0,1646.0,0.64,-2.03,9.43,-0.74,-1.39,-1.47,19.54,70.0-80.0
70.0,1637.0,0.51,-0.58,11.59,-2.54,-2.59,1.88,19.54,70.0-80.0
70.0,1302.0,0.01,-0.38,9.34,0.64,-0.38,-1.82,19.53,70.0-80.0
70.0,1285.0,0.4,-0.92,11.48,-1.93,-4.87,2.3,19.53,70.0-80.0
70.0,635.0,-0.64,-4.15,11.08,-3.71,-2.47,-1.34,19.54,70.0-80.0
70.0,1008.0,0.04,1.18,8.99,-1.07,3.19,0.89,19.54,70.0-80.0
70.0,398.0,0.24,-3.45,10.35,-2.58,-3.27,-1.03,19.54,70.0-80.0
70.0,895.0,0.67,-0.32,10.62,-3.01,0.95,1.37,19.53,70.0-80.0
70.0,1110.0,0.47,-2.7,10.15,-3.94,-1.74,-1.53,19.54,70.0-80.0
70.0,973.0,-1.34,1.88,9.97,1.03,5.9,-1.06,19.54,70.0-80.0
70.0,1154.0,-0.27,-4.0,11.27,-4.46,-3.08,-1.55,19.54,70.0-80.0
70.0,1594.0,-0.69,1.17,9.36,0.25,4.73,-0.07,19.54,70.0-80.0
70.0,1730.0,-0.48,1.03,8.68,1.73,1.45,0.19,19.54,70.0-80.0
70.0,1517.0,-0.26,1.98,8.18,1.12,3.22,-1.79,19.54,70.0-80.0
70.0,1329.0,0.39,-1.08,9.33,-1.42,0.03,-0.47,19.52,70.0-80.0
70.0,1802.0,-0.74,2.34,9.12,1.38,5.11,-1.18,19.54,70.0-80.0
70.0,1493.0,-0.04,3.36,9.29,6.19,1.56,2.17,19.53,70.0-80.0
70.0,1871.0,0.28,0.57,8.61,1.72,0.44,-1.78,19.54,70.0-80.0
70.0,1760.0,-1.18,3.24,8.58,5.49,3.37,0.98,19.53,70.0-80.0
70.0,1666.0,-0.18,1.56,8.0,1.4,1.82,-2.34,19.54,70.0-80.0
70.0,2390.0,0.87,0.32,10.54,1.29,-4.33,2.16,19.54,70.0-80.0
70.0,2240.0,-0.0,-3.2,9.93,-1.93,-2.93,-1.27,19.53,70.0-80.0
70.0,2251.0,0.94,1.68,9.78,3.98,-2.09,2.37,19.54,70.0-80.0
70.0,2256.0,0.15,-1.1,9.25,0.3,-1.59,-1.29,19.53,70.0-80.0
70.0,1840.0,1.07,-0.59,11.45,-2.2,-3.37,2.42,19.53,70.0-80.0
70.0,1458.0,-0.28,-4.2,11.46,-4.46,-3.72,-0.83,19.54,70.0-80.0
70.0,1325.0,0.89,-0.29,11.18,-0.51,-3.94,2.33,19.53,70.0-80.0
70.0,1271.0,-0.93,-4.28,10.9,-3.67,-3.25,-1.26,19.53,70.0-80.0
70.0,1776.0,0.67,-0.0,9.72,-2.2,1.49,0.4,19.54,70.0-80.0
70.0,1497.0,-0.47,-1.06,9.22,-1.78,0.09,-0.83,19.55,70.0-80.0
70.0,1664.0,1.03,-0.33,10.99,-2.94,-2.21,1.44,19.55,70.0-80.0
70.0,2158.0,0.38,-2.92,10.34,-3.8,-2.09,-0.98,19.52,70.0-80.0
70.0,2240.0,-0.78,1.41,9.87,0.47,5.81,-0.77,19.51,70.0-80.0
70.0,2137.0,-0.79,2.48,9.52,4.36,1.56,1.69,19.51,70.0-80.0
70.0,2350.0,-0.8,0.74,9.93,-0.25,4.91,0.04,19.53,70.0-80.0
70.0,2058.0,-0.64,1.28,9.08,2.05,1.59,0.88,19.54,70.0-80.0
70.0,1438.0,-0.33,1.96,8.09,1.08,3.34,-2.28,19.53,70.0-80.0
70.0,1636.0,0.84,1.94,9.54,3.92,-1.27,2.07,19.52,70.0-80.0
70.0,2275.0,-0.85,2.36,8.06,1.2,4.99,-2.42,19.52,70.0-80.0
70.0,1904.0,1.07,2.87,9.29,5.46,-0.02,1.96,19.53,70.0-80.0
70.0,2715.0,0.1,-0.71,9.11,0.35,-1.57,-1.78,19.53,70.0-80.0
70.0,2706.0,0.67,-1.39,11.44,-3.16,-3.37,2.14,19.52,70.0-80.0
70.0,1645.0,-0.03,0.39,8.75,0.62,-0.53,-1.79,19.52,70.0-80.0
70.0,1767.0,0.49,-0.8,11.25,-0.83,-3.98,2.71,19.52,70.0-80.0
70.0,1582.0,-0.73,-4.66,10.99,-4.0,-3.88,-0.98,19.54,70.0-80.0
70.0,1495.0,0.78,0.27,9.62,-1.71,2.33,0.71,19.52,70.0-80.0
70.0,1115.0,-0.23,-3.29,9.95,-1.46,-2.67,-1.15,19.5,70.0-80.0
70.0,1303.0,1.05,-0.19,10.55,-2.87,-0.84,1.46,19.51,70.0-80.0
70.0,1129.0,0.92,-2.72,10.33,-3.85,-2.4,-1.2,19.52,70.0-80.0
70.0,1577.0,-1.72,2.06,9.58,1.12,6.21,-1.37,19.52,70.0-80.0
70.0,1659.0,0.49,-4.13,11.13,-4.96,-3.94,-1.38,19.53,70.0-80.0
70.0,1525.0,-1.14,1.38,10.01,0.15,5.05,-0.34,19.53,70.0-80.0
70.0,1473.0,-1.1,2.03,9.02,3.17,2.53,0.98,19.52,70.0-80.0
70.0,1643.0,-0.16,1.81,8.1,1.2,2.82,-1.99,19.5,70.0-80.0
70.0,1255.0,-0.62,0.04,9.44,-0.04,0.85,-0.07,19.52,70.0-80.0
70.0,650.0,-0.75,2.69,7.66,1.93,5.0,-1.91,19.51,70.0-80.0
70.0,1484.0,1.29,2.67,9.4,5.55,-0.31,2.37,19.51,70.0-80.0
70.0,1152.0,0.02,-0.77,8.9,0.85,-2.26,-1.59,19.52,70.0-80.0
70.0,1264.0,-0.07,3.76,9.21,6.48,1.95,1.95,19.52,70.0-80.0
70.0,1753.0,0.22,0.61,8.54,1.51,-0.0,-1.98,19.52,70.0-80.0
70.0,1290.0,0.6,-0.6,11.29,-1.13,-4.7,2.46,19.5,70.0-80.0
70.0,1195.0,-0.68,-4.63,11.42,-3.94,-3.92,-0.95,19.51,70.0-80.0
70.0,771.0,0.36,0.7,10.56,1.31,-3.77,2.65,19.52,70.0-80.0
70.0,653.0,-0.02,-3.3,9.87,-1.87,-3.3,-1.06,19.51,70.0-80.0
70.0,293.0,0.74,-0.07,10.37,-2.6,0.29,1.35,19.49,70.0-80.0
70.0,6.0,0.62,-2.44,9.95,-3.18,-1.62,-1.03,19.52,70.0-80.0
70.0,635.0,0.85,-0.28,11.08,-2.31,-1.62,1.67,19.5,70.0-80.0
70.0,1159.0,0.41,-3.39,10.8,-3.77,-2.99,-1.21,19.51,70.0-80.0
70.0,667.0,-1.22,1.57,9.64,0.91,5.74,-0.51,19.51,70.0-80.0
70.0,896.0,-0.52,1.9,9.21,3.46,1.95,1.3,19.51,70.0-80.0
70.0,383.0,-0.68,1.13,9.46,-0.25,3.66,0.39,19.53,70.0-80.0
70.0,762.0,-0.7,0.36,8.93,0.68,1.33,0.33,19.52,70.0-80.0
70.0,1117.0,0.0,1.79,8.37,0.77,3.66,-2.13,19.49,70.0-80.0
70.0,904.0,0.51,2.69,9.17,4.85,-0.69,2.19,19.5,70.0-80.0
70.0,1086.0,-0.74,2.23,8.69,1.2,5.31,-1.96,19.51,70.0-80.0
70.0,714.0,0.45,3.49,9.57,6.1,1.54,2.1,19.52,70.0-80.0
70.0,1102.0,-0.66,0.75,8.63,2.09,-1.77,-1.75,19.52,70.0-80.0
70.0,985.0,1.21,-1.23,11.61,-1.62,-4.39,2.59,19.47,70.0-80.0
70.0,1615.0,-0.21,1.64,8.39,2.47,0.37,-1.72,19.49,70.0-80.0
70.0,1386.0,-0.29,-0.05,10.69,0.19,-4.47,3.04,19.49,70.0-80.0
70.0,1232.0,0.48,-5.63,11.56,-4.43,-5.3,-0.91,19.5,70.0-80.0
70.0,1451.0,0.7,-0.97,9.66,-4.49,0.81,0.51,19.5,70.0-80.0
70.0,1023.0,0.1,-3.88,10.15,-2.81,-5.02,-1.24,19.51,70.0-80.0
70.0,790.0,1.37,-1.71,11.36,-4.63,-0.6,0.83,19.48,70.0-80.0
70.0,1358.0,0.18,-2.75,9.97,-4.06,-2.35,-1.73,19.52,70.0-80.0
70.0,930.0,-1.73,2.88,9.47,2.37,7.58,-1.32,19.5,70.0-80.0
70.0,1258.0,0.56,-4.2,11.08,-4.93,-2.98,-1.67,19.5,70.0-80.0
70.0,1471.0,-1.66,2.06,9.56,0.96,6.07,-0.11,19.5,70.0-80.0
70.0,1134.0,-0.58,1.95,8.79,3.4,2.43,1.06,19.51,70.0-80.0
70.0,1561.0,-0.28,1.15,8.35,0.45,1.17,-1.56,19.49,70.0-80.0
70.0,1486.0,0.05,-0.0,9.06,0.31,0.55,0.24,19.47,70.0-80.0
70.0,1600.0,-0.13,1.55,8.97,0.36,3.01,-1.55,19.51,70.0-80.0
70.0,1625.0,0.21,2.12,9.63,4.36,0.47,1.73,19.52,70.0-80.0
70.0,1996.0,0.2,0.1,9.06,1.29,-0.21,-2.04,19.51,70.0-80.0
70.0,1890.0,-0.67,2.37,9.35,4.53,2.56,1.2,19.51,70.0-80.0
70.0,1507.0,-0.34,1.41,8.38,1.58,0.76,-2.19,19.48,70.0-80.0
70.0,2239.0,0.38,0.94,10.66,1.46,-3.59,2.34,19.5,70.0-80.0
70.0,2033.0,-0.52,-3.05,10.07,-1.61,-2.99,-1.09,19.49,70.0-80.0
70.0,2247.0,0.53,1.94,9.74,3.38,-2.29,2.25,19.5,70.0-80.0
70.0,2367.0,-0.09,-1.3,9.44,0.44,-1.82,-1.29,19.48,70.0-80.0
70.0,2209.0,0.73,-0.16,10.98,-1.64,-1.92,2.07,19.5,70.0-80.0
70.0,1313.0,0.6,-4.1,11.2,-4.58,-3.98,-0.79,19.5,70.0-80.0
70.0,1562.0,0.7,0.23,11.09,-0.11,-3.37,2.4,19.48,70.0-80.0
70.0,1839.0,-0.59,-4.52,11.44,-3.77,-3.97,-0.88,19.49,70.0-80.0
70.0,2150.0,0.65,-0.66,9.89,-2.9,1.43,0.36,19.5,70.0-80.0
70.0,2420.0,-1.06,-0.47,9.43,-1.13,0.93,-0.24,19.48,70.0-80.0
70.0,1887.0,1.33,-1.06,10.4,-3.8,-1.07,1.11,19.49,70.0-80.0
70.0,1968.0,0.3,-2.49,9.88,-3.93,-1.65,-1.14,19.48,70.0-80.0
70.0,1510.0,-1.07,2.35,9.14,1.51,6.67,-1.53,19.51,70.0-80.0
70.0,1808.0,-0.14,3.39,9.69,5.58,1.6,1.91,19.49,70.0-80.0
70.0,2032.0,-1.08,1.33,9.79,0.54,6.73,-0.83,19.49,70.0-80.0
70.0,1927.0,-1.22,2.95,9.12,4.51,1.92,1.37,19.49,70.0-80.0
70.0,1434.0,0.03,1.65,8.2,1.95,2.94,-1.91,19.47,70.0-80.0
70.0,1907.0,0.3,1.06,10.23,2.04,-4.0,2.57,19.49,70.0-80.0
70.0,1815.0,-0.26,2.33,8.38,1.43,3.84,-2.04,19.49,70.0-80.0
70.0,2203.0,0.69,1.89,9.32,4.07,-1.14,2.22,19.49,70.0-80.0
70.0,2127.0,0.15,-1.13,9.21,0.15,-2.08,-1.53,19.51,70.0-80.0
70.0,2082.0,1.0,-0.66,11.51,-2.36,-2.64,2.04,19.51,70.0-80.0
70.0,1610.0,0.06,0.44,8.84,1.54,-0.14,-1.87,19.51,70.0-80.0
70.0,1256.0,0.38,-0.45,11.22,-1.33,-4.3,2.31,19.49,70.0-80.0
70.0,1117.0,-0.27,-4.51,11.41,-3.62,-3.4,-1.09,19.51,70.0-80.0
70.0,1073.0,0.0,0.47,9.21,-1.56,1.83,0.82,19.48,70.0-80.0
70.0,1058.0,0.07,-3.32,10.34,-1.7,-3.65,-0.95,19.48,70.0-80.0
70.0,893.0,0.71,-0.03,10.24,-2.29,0.44,1.43,19.51,70.0-80.0
70.0,771.0,0.54,-2.38,10.2,-3.26,-2.29,-0.83,19.5,70.0-80.0
70.0,1274.0,-1.28,1.87,9.81,1.06,5.61,-0.97,19.48,70.0-80.0
70.0,978.0,0.15,-4.0,10.99,-4.77,-3.37,-1.11,19.53,70.0-80.0
70.0,1143.0,-0.78,1.28,10.1,0.16,4.67,-0.25,19.49,70.0-80.0
70.0,1202.0,-1.37,2.28,8.79,3.24,2.81,0.56,19.49,70.0-80.0
70.0,1360.0,-0.19,2.47,7.99,1.96,2.99,-1.99,19.51,70.0-80.0
70.0,687.0,-0.58,-0.12,9.1,-0.42,0.92,-0.54,19.47,70.0-80.0
70.0,874.0,-0.37,2.63,8.68,1.67,4.46,-1.84,19.47,70.0-80.0
70.0,960.0,0.25,2.93,9.42,5.52,0.75,1.96,19.49,70.0-80.0
70.0,867.0,0.37,0.47,8.63,1.93,-0.28,-1.81,19.48,70.0-80.0
70.0,564.0,-1.33,3.13,9.12,5.27,3.31,1.2,19.48,70.0-80.0
70.0,888.0,-0.07,1.66,7.99,2.25,2.32,-2.08,19.47,70.0-80.0
70.0,1451.0,0.4,0.65,10.38,1.26,-5.1,2.51,19.47,70.0-80.0
70.0,1317.0,0.13,-3.31,10.15,-1.7,-3.16,-0.92,19.47,70.0-80.0
70.0,1283.0,0.74,1.74,9.28,3.87,-1.59,2.37,19.48,70.0-80.0
70.0,1205.0,0.37,-1.42,9.29,-0.14,-1.6,-1.37,19.49,70.0-80.0
70.0,1031.0,0.96,-0.6,11.44,-2.11,-2.38,2.07,19.49,70.0-80.0
70.0,971.0,-0.48,-4.15,11.09,-4.54,-2.87,-1.26,19.48,70.0-80.0
70.0,661.0,0.74,-0.22,11.35,-0.71,-4.82,2.16,19.48,70.0-80.0
70.0,423.0,-0.98,-4.34,11.26,-3.42,-3.39,-1.23,19.47,70.0-80.0
70.0,347.0,0.64,-0.55,9.73,-3.03,1.11,0.74,19.48,70.0-80.0
70.0,691.0,0.4,-1.87,9.74,-3.27,-0.82,-1.01,19.48,70.0-80.0
70.0,849.0,0.9,-1.49,11.4,-3.96,-2.11,1.69,19.49,70.0-80.0
70.0,1314.0,1.15,-4.54,10.67,-6.25,-3.04,-1.5,19.47,70.0-80.0
70.0,961.0,-1.82,1.58,10.44,0.22,5.92,-0.86,19.48,70.0-80.0
70.0,1079.0,-1.19,3.56,8.67,5.56,4.73,1.21,19.49,70.0-80.0
70.0,1040.0,-0.42,0.24,9.35,-1.62,3.34,0.05,19.47,70.0-80.0
70.0,862.0,-0.91,1.5,9.01,1.95,2.58,-0.02,19.48,70.0-80.0
70.0,1210.0,-0.47,3.28,7.94,2.89,4.88,-1.7,19.5,70.0-80.0
70.0,1233.0,0.75,2.32,9.51,4.69,-1.45,2.34,19.49,70.0-80.0
70.0,1152.0,-0.75,2.29,9.59,1.43,5.32,-1.32,19.48,70.0-80.0
70.0,1457.0,-0.79,2.74,9.45,5.17,1.62,1.69,19.5,70.0-80.0
70.0,2001.0,-0.16,1.19,8.51,1.57,1.02,-1.96,19.49,70.0-80.0
70.0,1499.0,0.56,0.33,10.76,0.65,-4.56,2.31,19.49,70.0-80.0
70.0,1779.0,-0.56,2.1,7.97,1.35,2.96,-2.17,19.47,70.0-80.0
70.0,1984.0,0.62,1.68,9.83,3.17,-2.96,2.1,19.47,70.0-80.0
70.0,2327.0,0.5,-1.26,9.08,0.68,-1.43,-1.38,19.5,70.0-80.0
70.0,2337.0,0.0,2.52,9.62,4.65,0.14,1.84,19.47,70.0-80.0
70.0,2164.0,-0.12,0.65,8.77,2.07,1.01,-1.78,19.46,70.0-80.0
70.0,2032.0,0.61,0.07,11.02,-0.36,-3.92,2.33,19.48,70.0-80.0
70.0,1534.0,-0.7,-4.08,11.38,-3.21,-4.09,-0.97,19.49,70.0-80.0
70.0,1934.0,0.34,1.05,10.26,1.84,-3.24,2.27,19.47,70.0-80.0
70.0,1750.0,0.35,-2.63,9.87,-0.86,-3.36,-1.08,19.51,70.0-80.0
70.0,1482.0,0.51,0.26,10.47,-1.74,-0.31,1.79,19.47,70.0-80.0
70.0,1795.0,0.97,-3.33,10.38,-4.32,-2.59,-0.89,19.48,70.0-80.0
70.0,1779.0,0.76,0.16,11.03,-0.95,-2.79,2.25,19.49,70.0-80.0
70.0,2315.0,0.01,-4.63,11.68,-5.09,-4.23,-1.08,19.49,70.0-80.0
70.0,2269.0,-0.24,-0.03,10.17,-1.68,2.49,-0.18,19.49,70.0-80.0
70.0,1835.0,-1.27,0.97,8.99,1.47,2.76,0.22,19.5,70.0-80.0
70.0,1923.0,0.56,-0.57,9.76,-3.19,0.64,0.8,19.46,70.0-80.0
70.0,1535.0,0.02,-1.22,9.8,-1.96,-0.12,-0.65,19.49,70.0-80.0
70.0,1981.0,-0.94,2.66,8.55,1.55,6.0,-1.58,19.48,70.0-80.0
70.0,1786.0,0.22,3.19,9.49,5.69,1.3,1.99,19.48,70.0-80.0
70.0,1329.0,0.44,2.57,10.86,4.91,-3.28,2.39,18.24,70.0-80.0
70.0,288.0,-1.26,0.96,7.85,1.38,6.23,-0.05,18.23,70.0-80.0
70.0,1249.0,-0.18,-0.44,7.33,0.31,-0.47,-2.28,18.24,70.0-80.0
70.0,2117.0,0.63,-0.66,11.33,-2.57,-1.27,-0.4,18.24,70.0-80.0
70.0,2736.0,1.02,-0.11,10.35,0.36,-0.66,-2.57,18.24,70.0-80.0
70.0,2793.0,1.05,-0.45,13.14,-1.61,-7.26,2.39,18.23,70.0-80.0
70.0,2176.0,-1.1,0.8,9.93,0.03,-2.12,-0.45,18.23,70.0-80.0
70.0,1159.0,-0.08,-0.32,8.38,0.45,-1.08,-0.39,18.22,70.0-80.0
70.0,747.0,-1.24,1.71,8.13,2.3,8.42,0.8,18.23,70.0-80.0
70.0,1104.0,0.57,-1.63,8.18,-1.52,0.06,-0.76,18.25,70.0-80.0
70.0,809.0,-1.0,1.1,9.23,1.22,7.08,-0.36,18.25,70.0-80.0
70.0,1662.0,-1.27,-1.92,10.46,-2.22,-0.08,-1.95,18.24,70.0-80.0
70.0,2472.0,1.27,0.13,11.89,-0.77,-6.49,1.81,18.24,70.0-80.0
70.0,2053.0,-0.81,-1.81,10.55,-2.19,1.37,-2.57,18.24,70.0-80.0
70.0,2209.0,0.61,0.74,10.96,-0.2,-6.29,1.85,18.23,70.0-80.0
70.0,1839.0,0.3,0.83,9.71,0.38,2.09,-1.09,18.24,70.0-80.0
70.0,1749.0,-0.09,0.59,8.19,2.62,-0.18,1.7,18.23,70.0-80.0
70.0,1776.0,0.85,0.18,10.01,-0.89,-1.1,-0.28,18.23,70.0-80.0
70.0,2003.0,0.09,-0.07,9.29,1.64,0.58,2.11,18.23,70.0-80.0
70.0,1990.0,-1.23,1.86,8.86,1.96,-1.56,0.62,18.24,70.0-80.0
70.0,1637.0,0.56,0.04,10.73,1.09,1.72,0.02,18.21,70.0-80.0
70.0,1649.0,-1.19,1.59,8.14,2.73,0.72,-0.5,18.23,70.0-80.0
70.0,1328.0,-0.13,0.87,10.72,1.34,-2.08,0.6,18.24,70.0-80.0
70.0,1860.0,0.75,0.68,10.7,1.38,4.29,-0.91,18.26,70.0-80.0
70.0,1397.0,-1.33,-0.04,7.82,0.5,0.96,-0.39,18.23,70.0-80.0
70.0,1680.0,0.06,1.39,9.86,0.56,1.49,-0.53,18.24,70.0-80.0
70.0,1602.0,0.27,0.03,10.22,1.73,0.95,1.05,18.24,70.0-80.0
70.0,1214.0,-1.15,0.76,9.24,-1.01,2.9,0.66,18.24,70.0-80.0
70.0,1309.0,0.35,-0.91,8.72,-0.84,-0.92,-0.4,18.23,70.0-80.0
70.0,1471.0,0.12,1.29,10.47,0.71,4.17,-0.89,18.21,70.0-80.0
70.0,1561.0,-1.21,0.27,8.96,2.19,1.48,-0.3,18.23,70.0-80.0
70.0,1236.0,-0.36,0.7,9.5,-0.8,0.08,0.24,18.24,70.0-80.0
70.0,1280.0,0.38,-0.96,9.12,-0.98,0.64,-1.17,18.24,70.0-80.0
70.0,1426.0,0.08,1.2,10.86,0.83,3.25,-0.62,18.24,70.0-80.0
70.0,1681.0,-1.56,0.52,9.07,1.86,1.66,0.66,18.23,70.0-80.0
70.0,1124.0,-0.52,0.51,9.18,-1.52,0.93,1.24,18.24,70.0-80.0
70.0,1313.0,1.2,-0.97,9.14,-1.29,0.26,-0.39,18.23,70.0-80.0
70.0,1409.0,-0.82,1.68,10.29,0.93,5.05,-0.83,18.22,70.0-80.0
70.0,1840.0,-1.08,1.22,9.41,3.37,0.98,0.48,18.23,70.0-80.0
70.0,1488.0,-0.77,0.98,9.04,-0.59,2.88,-0.1,18.23,70.0-80.0
70.0,1559.0,0.36,0.17,8.3,0.79,0.78,-0.94,18.23,70.0-80.0
70.0,1392.0,0.01,1.95,10.01,1.54,3.97,-1.47,18.22,70.0-80.0
70.0,1409.0,-0.85,1.05,10.11,3.44,-0.2,1.15,18.23,70.0-80.0
70.0,1709.0,-1.23,1.36,9.39,0.39,3.63,-0.02,18.24,70.0-80.0
70.0,1431.0,-0.48,1.01,8.05,2.07,1.94,0.54,18.24,70.0-80.0
70.0,1931.0,0.47,2.46,8.63,2.12,2.76,-0.77,18.23,70.0-80.0
70.0,1251.0,0.4,0.99,10.51,2.97,-1.4,1.95,18.22,70.0-80.0
70.0,1829.0,-1.67,2.11,9.92,1.76,5.63,-0.89,18.23,70.0-80.0
70.0,1535.0,-0.53,1.61,8.92,3.95,0.21,0.65,18.23,70.0-80.0
70.0,1889.0,0.07,1.0,8.27,1.0,0.85,-1.98,18.23,70.0-80.0
70.0,1836.0,1.04,-0.16,10.51,0.8,-4.67,1.55,18.22,70.0-80.0
70.0,2128.0,0.04,1.64,9.63,1.05,2.49,-1.61,18.22,70.0-80.0
70.0,2480.0,-0.37,0.63,10.26,2.85,-1.37,1.44,18.24,70.0-80.0
70.0,1938.0,-0.25,0.03,9.2,0.47,0.11,-0.95,18.24,70.0-80.0
70.0,1951.0,-0.03,-0.07,10.48,-0.22,-3.83,2.89,18.23,70.0-80.0
70.0,1759.0,0.41,1.45,8.3,0.97,1.19,-0.88,18.23,70.0-80.0
70.0,2433.0,0.83,0.42,10.26,1.73,-2.7,2.14,18.23,70.0-80.0
70.0,2644.0,0.24,-1.33,9.95,-0.3,-1.07,-1.52,18.24,70.0-80.0
70.0,2288.0,0.04,-0.51,11.32,-1.42,-2.12,1.85,18.25,70.0-80.0
70.0,2208.0,-0.28,0.43,8.53,1.25,0.18,-1.91,18.23,70.0-80.0
70.0,2199.0,0.5,-0.34,10.95,-0.43,-5.07,1.98,18.23,70.0-80.0
70.0,2635.0,0.06,-2.96,10.28,-2.39,-1.71,-1.53,18.21,70.0-80.0
70.0,2501.0,0.78,0.62,10.62,-1.52,0.5,1.9,18.22,70.0-80.0
70.0,1936.0,0.24,-1.49,10.0,-0.57,-0.95,-1.08,18.23,70.0-80.0
70.0,1811.0,-0.03,-0.46,11.26,-1.7,-2.34,2.6,18.22,70.0-80.0
70.0,1420.0,-0.87,-3.46,10.71,-3.45,-1.77,-1.38,18.22,70.0-80.0
70.0,1423.0,0.37,1.6,8.92,0.12,3.33,0.56,18.21,70.0-80.0
70.0,851.0,-0.01,-3.38,10.3,-2.8,-2.23,-1.67,18.21,70.0-80.0
70.0,1306.0,0.53,0.79,10.38,-1.38,1.48,1.17,18.23,70.0-80.0
70.0,748.0,-0.28,-1.44,9.82,-1.3,0.76,-1.78,18.22,70.0-80.0
70.0,1069.0,-1.28,2.27,9.85,2.05,4.3,-0.56,18.22,70.0-80.0
70.0,1104.0,-1.17,-2.98,10.51,-3.12,-0.4,-1.7,18.21,70.0-80.0
70.0,1237.0,0.06,1.87,8.81,0.7,3.57,0.74,18.19,70.0-80.0
70.0,1597.0,0.12,0.37,8.61,1.06,1.02,-0.04,18.21,70.0-80.0
70.0,1168.0,-0.41,1.58,9.6,1.02,2.24,-1.03,18.22,70.0-80.0
70.0,2126.0,-0.01,-1.61,10.14,-1.56,0.12,-1.03,18.22,70.0-80.0
70.0,1749.0,-1.2,1.7,10.09,1.32,3.62,-0.71,18.23,70.0-80.0
70.0,1943.0,-0.83,1.62,8.85,3.69,0.75,0.57,18.22,70.0-80.0
70.0,2181.0,0.25,1.29,8.3,1.15,1.45,-2.08,18.22,70.0-80.0
70.0,1835.0,-0.41,0.39,8.54,1.08,1.42,-0.69,18.21,70.0-80.0
70.0,1927.0,0.14,1.56,9.49,0.83,2.62,-1.58,18.24,70.0-80.0
70.0,1875.0,-0.2,0.94,10.36,2.91,-1.4,1.82,18.22,70.0-80.0
70.0,1751.0,-0.55,-0.1,9.05,0.47,0.75,-1.26,18.22,70.0-80.0
70.0,2356.0,-0.48,1.36,8.97,3.15,0.53,1.4,18.22,70.0-80.0
70.0,2370.0,0.06,1.01,8.51,0.79,0.64,-1.38,18.21,70.0-80.0
70.0,1890.0,0.39,0.07,10.35,1.03,-3.71,2.1,18.21,70.0-80.0
70.0,2279.0,0.72,-2.43,9.94,-1.27,-1.14,-1.73,18.21,70.0-80.0
70.0,2332.0,0.19,0.76,10.35,2.92,-2.14,1.4,18.21,70.0-80.0
70.0,2585.0,-0.3,-0.78,9.38,-0.2,-0.32,-1.93,18.24,70.0-80.0
70.0,2670.0,0.45,-0.69,11.31,-1.61,-3.04,2.08,18.21,70.0-80.0
70.0,2427.0,-0.88,-3.49,10.44,-3.59,-1.68,-1.38,18.21,70.0-80.0
70.0,2304.0,0.77,-0.37,10.62,0.13,-4.78,2.51,18.2,70.0-80.0
70.0,2138.0,0.54,-3.08,10.07,-2.51,-1.71,-0.91,18.24,70.0-80.0
70.0,1791.0,0.67,-0.49,11.25,-3.03,-0.46,1.99,18.2,70.0-80.0
70.0,1591.0,-0.57,-2.74,10.39,-3.41,0.06,-1.76,18.24,70.0-80.0
70.0,1408.0,0.28,-1.81,11.72,-2.97,-4.03,2.04,18.21,70.0-80.0
70.0,703.0,-0.92,-4.27,11.03,-4.55,-1.76,-2.1,18.2,70.0-80.0
70.0,1205.0,0.26,1.81,8.74,0.07,3.98,0.22,18.2,70.0-80.0
70.0,829.0,-0.07,0.69,8.71,1.51,2.4,-0.91,18.18,70.0-80.0
70.0,927.0,0.27,0.43,10.75,-2.29,0.82,1.56,18.21,70.0-80.0
70.0,1200.0,-0.68,-1.65,10.02,-1.93,0.73,-1.38,18.2,70.0-80.0
70.0,1184.0,-1.18,2.33,9.44,2.01,4.5,0.02,18.22,70.0-80.0
70.0,1627.0,-0.23,1.6,8.88,3.24,0.43,0.88,18.21,70.0-80.0
70.0,1447.0,0.04,1.61,8.67,0.1,4.64,0.3,18.21,70.0-80.0
70.0,1599.0,0.28,0.04,8.6,0.53,1.11,-0.8,18.23,70.0-80.0
70.0,1585.0,-0.14,1.53,9.76,1.17,3.19,-1.69,18.22,70.0-80.0
70.0,2029.0,-0.57,1.36,9.92,3.78,-0.98,1.47,18.22,70.0-80.0
70.0,1999.0,-0.83,1.56,9.87,1.28,3.81,-0.65,18.22,70.0-80.0
70.0,1202.0,-0.71,1.38,8.69,3.12,1.69,0.82,18.19,70.0-80.0
70.0,2064.0,0.19,1.2,8.35,0.82,1.46,-1.44,18.23,70.0-80.0
70.0,1595.0,0.5,0.51,10.21,1.58,-3.39,2.36,18.22,70.0-80.0
70.0,2166.0,-0.16,1.62,9.42,0.8,2.87,-1.17,18.22,70.0-80.0
70.0,2123.0,-0.08,1.26,9.92,3.43,-0.03,1.69,18.23,70.0-80.0
70.0,1797.0,-0.23,0.24,8.82,0.94,1.1,-1.9,18.2,70.0-80.0
70.0,2098.0,-0.17,0.12,10.53,0.07,-3.04,1.73,18.21,70.0-80.0
70.0,1983.0,-0.18,1.56,8.17,1.15,1.94,-2.16,18.21,70.0-80.0
70.0,2326.0,0.77,0.79,10.08,2.12,-3.49,1.85,18.2,70.0-80.0
70.0,2165.0,0.35,-1.49,9.5,-0.08,-0.78,-1.34,18.2,70.0-80.0
70.0,2416.0,0.89,-0.32,11.26,-1.41,-1.95,2.3,18.21,70.0-80.0
70.0,2462.0,-0.49,0.46,8.78,1.46,1.11,-1.41,18.19,70.0-80.0
70.0,2029.0,0.01,-0.05,10.87,-0.14,-3.97,2.54,18.2,70.0-80.0
70.0,1898.0,-0.13,-3.73,10.41,-2.81,-2.85,-1.14,18.2,70.0-80.0
70.0,1535.0,1.08,0.3,9.98,-1.96,0.41,1.41,18.22,70.0-80.0
70.0,1355.0,0.44,-2.0,9.65,-0.71,-1.4,-1.53,18.23,70.0-80.0
70.0,1318.0,0.92,-0.33,11.38,-1.61,-1.51,1.88,18.22,70.0-80.0
70.0,1177.0,-0.7,-3.44,11.1,-3.85,-2.44,-1.49,18.22,70.0-80.0
70.0,1424.0,-0.51,1.1,9.37,-0.25,3.3,0.21,18.2,70.0-80.0
70.0,1360.0,-0.37,-3.57,10.3,-2.94,-2.72,-1.26,18.21,70.0-80.0
70.0,1583.0,0.96,0.61,9.87,-1.49,0.78,1.53,18.22,70.0-80.0
70.0,720.0,0.31,-1.52,9.61,-2.05,-0.18,-0.69,18.22,70.0-80.0
70.0,1319.0,-1.18,1.58,10.27,0.88,4.12,-0.88,18.2,70.0-80.0
70.0,1949.0,-0.49,-3.46,11.01,-3.77,-1.82,-1.58,18.19,70.0-80.0
70.0,1706.0,-0.75,1.08,9.28,-0.01,3.48,-0.18,18.22,70.0-80.0
70.0,1459.0,-0.21,0.82,8.62,1.76,1.57,0.04,18.24,70.0-80.0
70.0,1965.0,-0.12,1.79,8.87,1.17,2.59,-1.72,18.22,70.0-80.0
70.0,1274.0,0.31,-1.19,9.35,-1.35,0.59,-0.8,18.21,70.0-80.0
70.0,1982.0,-0.78,1.38,10.02,0.74,3.72,-0.97,18.2,70.0-80.0
70.0,1598.0,-0.66,1.5,9.8,3.47,0.44,1.61,18.2,70.0-80.0
70.0,1577.0,-0.37,1.31,8.37,1.57,1.1,-1.46,18.21,70.0-80.0
70.0,1722.0,-0.58,0.88,8.56,1.83,2.38,0.36,18.21,70.0-80.0
70.0,2154.0,0.06,2.01,8.26,1.63,3.11,-1.73,18.22,70.0-80.0
70.0,1805.0,0.55,1.35,10.1,3.12,-2.64,1.88,18.22,70.0-80.0
70.0,1582.0,-0.08,-0.57,9.51,0.8,-0.6,-1.66,18.22,70.0-80.0
70.0,1981.0,-0.57,1.91,9.79,4.01,1.02,1.27,18.21,70.0-80.0
70.0,1857.0,-0.24,1.04,8.31,1.76,1.36,-1.81,18.22,70.0-80.0
70.0,2003.0,0.1,0.36,10.61,0.76,-4.61,2.37,18.22,70.0-80.0
70.0,2156.0,0.17,-2.96,10.13,-1.62,-2.7,-1.12,18.21,70.0-80.0
70.0,2107.0,0.83,1.22,9.83,2.91,-3.01,2.11,18.21,70.0-80.0
70.0,2274.0,0.02,-1.03,9.7,0.47,-1.13,-1.38,18.2,70.0-80.0
70.0,1879.0,0.39,-0.19,11.25,-0.97,-2.58,2.19,18.2,70.0-80.0
70.0,1614.0,-0.71,-3.9,11.18,-3.74,-3.1,-1.49,18.2,70.0-80.0
70.0,1712.0,-0.06,0.05,11.02,0.15,-4.67,2.14,18.22,70.0-80.0
70.0,1254.0,-0.24,-3.37,10.26,-2.2,-2.93,-1.27,18.21,70.0-80.0
70.0,933.0,1.24,0.19,10.43,-1.84,-0.08,1.73,18.21,70.0-80.0
70.0,658.0,0.16,-2.02,10.32,-2.77,-1.53,-0.76,18.2,70.0-80.0
70.0,959.0,0.67,-0.38,11.16,-1.61,-1.77,2.39,18.2,70.0-80.0
70.0,962.0,-0.51,-3.67,11.18,-3.84,-2.61,-1.21,18.2,70.0-80.0
70.0,903.0,-0.49,1.17,9.6,-0.08,2.85,0.33,18.2,70.0-80.0
70.0,707.0,-0.92,0.95,8.57,1.64,1.89,-0.1,18.22,70.0-80.0
70.0,1183.0,0.96,0.65,9.89,-1.39,0.76,1.12,18.21,70.0-80.0
70.0,1527.0,0.13,-1.26,9.78,-1.67,-0.46,-1.06,18.22,70.0-80.0
70.0,1302.0,-1.26,1.78,10.22,1.09,4.24,-0.82,18.2,70.0-80.0
70.0,1162.0,-0.74,2.01,9.49,4.13,1.39,1.46,18.2,70.0-80.0
70.0,1466.0,-0.87,1.07,9.74,-0.22,3.95,0.02,18.21,70.0-80.0
70.0,1488.0,-1.2,1.42,8.68,2.37,1.92,0.37,18.2,70.0-80.0
70.0,1399.0,0.12,2.14,8.13,1.7,3.72,-1.82,18.21,70.0-80.0
70.0,1151.0,0.62,1.45,9.56,3.17,-1.68,1.49,18.2,70.0-80.0
70.0,1862.0,-0.66,1.83,10.18,1.14,4.1,-1.5,18.2,70.0-80.0
70.0,1569.0,-0.87,2.19,9.61,4.62,1.85,1.09,18.23,70.0-80.0
70.0,1426.0,-0.43,1.29,8.11,2.02,2.0,-2.01,18.2,70.0-80.0
70.0,1370.0,0.15,0.48,10.29,1.09,-4.21,2.2,18.22,70.0-80.0
70.0,1719.0,-0.16,1.94,8.21,1.2,2.7,-1.85,18.23,70.0-80.0
70.0,1938.0,0.59,1.32,9.63,3.03,-1.5,1.99,18.22,70.0-80.0
70.0,1629.0,0.33,-0.44,8.92,1.31,0.47,-1.43,18.2,70.0-80.0
70.0,1789.0,0.69,0.35,10.92,-0.42,-2.93,2.33,18.21,70.0-80.0
70.0,1637.0,-0.19,1.07,8.51,1.96,2.62,-2.05,18.22,70.0-80.0
70.0,1314.0,-0.09,0.98,10.16,1.32,-3.05,1.96,18.19,70.0-80.0
70.0,1447.0,-0.3,-2.89,10.13,-1.24,-2.5,-1.35,18.21,70.0-80.0
70.0,1435.0,0.8,0.25,10.04,-1.44,0.01,1.4,18.23,70.0-80.0
70.0,1008.0,0.11,-1.4,9.29,0.31,-1.6,-1.67,18.22,70.0-80.0
70.0,649.0,0.98,-0.17,10.82,-1.44,-0.76,1.75,18.23,70.0-80.0
70.0,0.0,0.19,-3.96,11.43,-4.32,-3.89,-1.14,18.22,70.0-80.0
70.0,829.0,-1.14,0.65,9.84,-0.68,3.88,-0.05,18.23,70.0-80.0
70.0,788.0,-0.73,-3.99,11.22,-3.33,-4.26,-1.01,18.2,70.0-80.0
70.0,1136.0,0.5,0.24,9.57,-1.58,1.95,0.77,18.2,70.0-80.0
70.0,1010.0,-0.33,-0.54,9.1,-0.72,0.55,-0.63,18.18,70.0-80.0
70.0,1237.0,-0.37,2.22,8.61,1.73,5.2,-1.73,18.22,70.0-80.0
70.0,1345.0,0.28,-2.47,10.3,-3.61,-2.37,-1.09,18.21,70.0-80.0
70.0,1389.0,-1.45,1.46,10.09,0.8,6.04,-1.08,18.22,70.0-80.0
70.0,1215.0,-0.94,2.41,9.12,4.21,1.68,1.26,18.21,70.0-80.0
70.0,1267.0,-0.01,1.25,8.28,1.63,1.95,-1.9,18.2,70.0-80.0
70.0,802.0,-1.26,1.04,8.9,1.58,1.88,0.59,18.2,70.0-80.0
70.0,1369.0,0.16,1.86,8.38,1.28,3.3,-1.7,18.2,70.0-80.0
70.0,1329.0,0.48,1.77,9.58,3.79,-1.36,2.19,18.2,70.0-80.0
70.0,1296.0,0.32,-0.59,9.24,1.23,-1.21,-1.53,18.22,70.0-80.0
70.0,1415.0,-0.38,2.37,9.85,4.68,1.71,1.49,18.22,70.0-80.0
70.0,1645.0,-0.04,1.3,8.36,2.54,0.46,-2.11,18.2,70.0-80.0
70.0,1421.0,0.04,0.37,11.14,0.73,-4.65,2.3,18.19,70.0-80.0
70.0,1841.0,-0.32,-4.69,10.9,-3.7,-4.32,-1.3,18.18,70.0-80.0
70.0,1553.0,0.34,1.61,9.62,3.28,-4.46,2.34,18.22,70.0-80.0
70.0,1359.0,0.38,-3.38,10.04,-1.42,-3.48,-1.21,18.21,70.0-80.0
70.0,1328.0,1.22,-2.03,11.54,-4.57,-2.4,1.78,18.19,70.0-80.0
70.0,1165.0,-0.1,-3.83,10.87,-5.13,-2.06,-1.24,18.2,70.0-80.0
70.0,847.0,1.21,-1.95,11.74,-2.63,-4.29,2.49,18.21,70.0-80.0
70.0,605.0,-0.75,-5.02,11.72,-5.38,-4.32,-1.08,18.21,70.0-80.0
70.0,1040.0,0.25,0.35,9.62,-1.7,2.94,0.45,18.19,70.0-80.0
70.0,915.0,-0.82,0.19,9.01,0.07,2.09,-0.5,18.2,70.0-80.0
70.0,663.0,0.96,-0.44,10.39,-2.89,-0.78,1.32,18.19,70.0-80.0
70.0,1063.0,0.33,-2.62,10.22,-3.48,-0.93,-1.27,18.22,70.0-80.0
70.0,1497.0,-1.06,1.35,10.47,0.13,4.38,-1.11,18.21,70.0-80.0
70.0,752.0,-1.36,2.27,9.07,3.9,2.91,1.17,18.2,70.0-80.0
70.0,1591.0,-0.53,0.48,9.69,-1.26,2.49,0.3,18.2,70.0-80.0
70.0,1348.0,-0.58,0.47,8.92,0.93,2.3,0.45,18.2,70.0-80.0
70.0,1778.0,-0.03,1.89,8.67,0.97,2.04,-1.66,18.18,70.0-80.0
70.0,1082.0,0.61,-1.8,9.65,-2.02,0.14,-0.66,18.19,70.0-80.0
70.0,1798.0,-0.59,0.75,9.88,-0.04,3.62,-1.38,18.17,70.0-80.0
70.0,981.0,-1.0,1.7,10.13,3.23,1.19,1.24,18.19,70.0-80.0
70.0,1157.0,-0.52,1.48,8.32,2.19,2.52,-2.08,18.21,70.0-80.0
70.0,1232.0,-1.15,0.95,9.22,1.64,1.72,0.8,18.19,70.0-80.0
70.0,1085.0,-0.05,1.93,8.32,1.35,3.4,-2.04,18.2,70.0-80.0
70.0,1153.0,0.15,1.99,9.55,3.28,-2.12,2.22,18.19,70.0-80.0
70.0,2043.0,0.18,-1.29,9.33,0.54,-1.3,-1.35,18.19,70.0-80.0
70.0,1766.0,-0.08,2.43,9.52,4.28,0.63,2.04,18.2,70.0-80.0
70.0,1535.0,0.0,0.48,8.8,1.92,0.23,-1.75,18.18,70.0-80.0
70.0,1319.0,0.68,-0.02,10.85,-0.13,-3.36,2.16,18.2,70.0-80.0
70.0,592.0,-0.67,-4.61,11.59,-3.9,-4.32,-1.23,18.19,70.0-80.0
70.0,437.0,0.33,0.97,10.5,2.05,-3.42,2.17,18.2,70.0-80.0
70.0,395.0,-0.28,-3.74,10.43,-1.93,-4.67,-0.97,18.19,70.0-80.0
70.0,572.0,1.21,-1.25,10.79,-3.87,-0.84,1.47,18.21,70.0-80.0
70.0,944.0,0.65,-2.9,10.21,-4.35,-1.79,-0.89,18.18,70.0-80.0
70.0,464.0,1.05,-1.84,11.61,-3.71,-3.22,2.1,18.17,70.0-80.0
70.0,1191.0,0.44,-4.96,11.27,-6.31,-3.3,-1.52,18.19,70.0-80.0
70.0,1187.0,-1.45,1.33,10.02,-0.19,5.16,-0.66,18.19,70.0-80.0
70.0,1152.0,-1.53,2.97,8.52,4.34,4.41,0.47,18.19,70.0-80.0
70.0,720.0,0.34,0.03,9.39,-2.68,1.89,0.07,18.21,70.0-80.0
70.0,658.0,-0.87,0.34,9.1,0.31,3.19,-0.63,18.2,70.0-80.0
70.0,1040.0,-0.57,3.49,8.31,3.12,5.65,-1.5,18.22,70.0-80.0
70.0,1168.0,0.0,3.25,9.41,6.01,0.49,2.19,18.2,70.0-80.0
70.0,1213.0,-1.73,2.43,9.92,1.7,6.68,-0.92,18.18,70.0-80.0
70.0,1206.0,-0.64,3.65,8.96,5.98,3.19,1.61,18.19,70.0-80.0
70.0,1490.0,-0.25,2.04,8.3,2.62,0.27,-1.78,18.21,70.0-80.0
70.0,1415.0,-0.29,0.67,10.23,1.87,-3.4,2.11,18.2,70.0-80.0
70.0,1122.0,0.1,2.59,8.32,2.15,2.2,-1.96,18.18,70.0-80.0
70.0,1635.0,0.12,1.65,9.77,3.47,-2.37,1.98,18.19,70.0-80.0
70.0,1535.0,0.13,-1.54,9.7,0.09,-1.25,-1.73,18.19,70.0-80.0
70.0,1366.0,1.0,-0.39,11.02,-1.61,-2.27,2.1,18.2,70.0-80.0
70.0,1420.0,-0.59,0.27,8.89,0.89,-0.23,-1.67,18.2,70.0-80.0
70.0,1050.0,0.37,0.35,10.99,0.5,-2.67,2.4,18.19,70.0-80.0
70.0,483.0,-0.35,-3.11,10.3,-1.87,-3.19,-0.97,18.21,70.0-80.0
70.0,496.0,0.59,0.48,10.11,-1.5,0.41,1.23,18.19,70.0-80.0
70.0,673.0,0.1,-1.67,9.63,0.3,-1.57,-1.64,18.21,70.0-80.0
70.0,673.0,1.12,0.11,10.43,-1.21,-0.67,1.43,18.19,70.0-80.0
70.0,1073.0,0.34,-3.75,10.9,-4.57,-3.68,-1.27,18.19,70.0-80.0
70.0,1006.0,-0.91,0.28,10.45,-0.95,4.07,-0.69,18.2,70.0-80.0
70.0,1163.0,-0.46,-4.25,11.38,-3.97,-3.36,-0.98,18.19,70.0-80.0
70.0,1367.0,-0.19,0.34,9.47,-1.2,2.26,0.82,18.19,70.0-80.0
70.0,1040.0,-0.54,0.25,8.97,0.99,2.01,0.63,18.17,70.0-80.0
70.0,1091.0,0.16,1.92,8.4,1.38,3.11,-1.56,18.18,70.0-80.0
70.0,977.0,0.29,-1.35,9.47,-1.53,0.41,-0.48,18.2,70.0-80.0
70.0,1169.0,-0.3,1.64,9.33,0.82,4.67,-1.46,18.19,70.0-80.0
70.0,880.0,-0.49,2.34,9.78,4.16,0.69,1.72,18.2,70.0-80.0
70.0,1296.0,0.12,0.79,8.84,1.78,0.05,-2.07,18.17,70.0-80.0
70.0,965.0,-0.89,1.98,9.06,3.43,3.05,0.97,18.18,70.0-80.0
70.0,1088.0,-0.05,1.89,8.14,1.86,2.18,-2.27,18.17,70.0-80.0
70.0,1296.0,-0.4,1.72,10.15,2.41,-3.31,2.43,18.18,70.0-80.0
70.0,1378.0,0.01,-3.12,10.2,-0.88,-3.71,-1.05,18.19,70.0-80.0
70.0,1251.0,0.22,2.83,9.26,4.83,-1.48,2.54,18.19,70.0-80.0
70.0,773.0,-0.19,-1.05,9.39,1.43,-3.11,-1.26,18.18,70.0-80.0
70.0,365.0,0.69,-0.72,10.99,-1.53,-2.01,2.02,18.19,70.0-80.0
70.0,795.0,0.81,-4.6,11.28,-4.95,-4.9,-1.05,18.2,70.0-80.0
70.0,957.0,0.35,-0.11,11.24,-0.52,-3.75,2.28,18.2,70.0-80.0
70.0,1114.0,-0.25,-4.81,11.66,-3.96,-4.12,-1.4,18.19,70.0-80.0
70.0,1379.0,-0.14,-0.05,9.68,-2.26,2.01,0.28,18.2,70.0-80.0
