Speed,Voice,Acceleration X,Acceleration Y,Acceleration Z,Gyro X,Gyro Y,Gyro Z,Temperature,Speed_Range
80.0,1956.0,-1.06,4.56,9.45,8.13,-2.33,3.43,28.47,80.0-90.0
80.0,1999.0,-2.34,-2.0,8.44,-0.84,6.23,-2.27,28.44,80.0-90.0
80.0,1275.0,-0.37,0.66,9.24,-3.39,0.56,1.02,28.46,80.0-90.0
80.0,125.0,-1.57,3.86,10.9,5.78,-6.07,2.82,28.46,80.0-90.0
80.0,2106.0,0.76,-1.13,8.47,-3.99,6.0,0.29,28.47,80.0-90.0
80.0,2926.0,-1.03,5.0,9.6,8.25,-4.2,4.93,28.46,80.0-90.0
80.0,1968.0,-2.2,-2.81,8.25,-2.83,6.8,-2.55,28.47,80.0-90.0
80.0,451.0,-0.13,0.33,9.34,-4.17,2.04,0.41,28.46,80.0-90.0
80.0,1655.0,-0.99,-2.18,8.81,1.73,2.33,-2.55,28.46,80.0-90.0
80.0,1366.0,1.47,-4.48,9.11,-9.31,6.29,-5.34,28.47,80.0-90.0
80.0,2688.0,0.95,5.68,11.18,10.72,-7.01,5.48,28.49,80.0-90.0
80.0,1230.0,-1.19,-2.35,8.75,1.83,2.71,-2.67,28.46,80.0-90.0
80.0,2927.0,1.03,3.75,11.09,1.7,-6.05,4.27,28.44,80.0-90.0
80.0,939.0,-1.76,4.63,10.17,11.5,-6.36,5.57,28.47,80.0-90.0
80.0,1358.0,-1.95,-6.85,7.75,-14.56,8.28,-7.97,28.48,80.0-90.0
80.0,0.0,0.57,1.98,9.72,-1.87,3.79,3.37,28.47,80.0-90.0
80.0,1496.0,-1.59,-3.94,9.03,-2.16,-1.21,-4.15,28.47,80.0-90.0
80.0,1905.0,-0.73,-6.11,10.28,-16.07,8.34,-7.26,28.45,80.0-90.0
80.0,877.0,1.12,7.16,11.24,14.22,-6.31,9.32,28.47,80.0-90.0
80.0,1434.0,-2.39,1.45,10.9,6.05,-11.62,0.08,28.44,80.0-90.0
80.0,1739.0,1.76,0.39,8.77,-1.88,11.22,-0.06,28.45,80.0-90.0
80.0,0.0,2.63,7.43,12.65,17.54,-16.79,10.27,28.43,80.0-90.0
80.0,386.0,-2.14,-5.44,8.69,-7.89,-2.74,-6.36,28.47,80.0-90.0
80.0,2928.0,-2.17,-5.84,9.18,-16.5,13.66,-7.08,28.45,80.0-90.0
80.0,0.0,0.5,5.35,11.27,13.8,-15.31,7.97,28.44,80.0-90.0
80.0,1535.0,-1.43,-7.96,6.74,-16.47,10.89,-10.67,28.45,80.0-90.0
80.0,1607.0,1.99,-2.07,9.05,-5.86,14.32,-1.91,28.47,80.0-90.0
80.0,609.0,1.91,8.22,14.24,18.02,-19.07,12.21,28.47,80.0-90.0
80.0,70.0,-2.68,-7.81,5.29,-18.24,19.2,-12.82,28.46,80.0-90.0
80.0,1107.0,1.78,2.26,9.31,3.67,12.46,1.53,28.46,80.0-90.0
80.0,1332.0,3.33,7.43,13.57,18.09,-20.38,11.15,28.46,80.0-90.0
80.0,0.0,-2.34,-5.14,9.07,-9.89,-6.07,-6.36,28.46,80.0-90.0
80.0,748.0,0.61,5.38,9.6,11.13,6.4,6.84,28.46,80.0-90.0
80.0,1135.0,2.76,5.84,12.28,14.78,-19.19,9.84,28.45,80.0-90.0
80.0,0.0,-1.35,-6.85,7.69,-14.2,2.88,-8.77,28.46,80.0-90.0
80.0,1602.0,-1.18,-4.43,9.01,-12.0,15.46,-5.87,28.47,80.0-90.0
80.0,786.0,0.16,3.96,11.53,9.59,-17.36,6.3,28.45,80.0-90.0
80.0,1501.0,-1.42,-7.49,6.2,-15.89,12.38,-11.7,28.49,80.0-90.0
80.0,928.0,1.27,-2.67,9.35,-6.08,15.1,-4.2,28.46,80.0-90.0
80.0,511.0,1.17,8.08,13.75,16.78,-18.72,11.93,28.46,80.0-90.0
80.0,1632.0,-2.05,-7.84,4.85,-15.97,22.27,-13.57,28.48,80.0-90.0
80.0,1535.0,2.68,-0.53,10.64,-0.42,11.3,-0.72,28.45,80.0-90.0
80.0,0.0,2.07,7.84,14.87,16.11,-26.44,13.84,28.45,80.0-90.0
80.0,410.0,-3.91,-1.36,8.55,-3.51,-7.68,-1.53,28.45,80.0-90.0
80.0,1882.0,2.78,1.65,11.11,4.3,7.32,3.11,28.44,80.0-90.0
80.0,694.0,2.92,7.24,14.19,15.16,-27.49,13.57,28.45,80.0-90.0
80.0,805.0,-3.71,-3.3,7.48,-6.87,-0.74,-5.02,28.43,80.0-90.0
80.0,2928.0,-3.39,-6.6,7.26,-15.78,24.36,-11.95,28.45,80.0-90.0
80.0,319.0,3.27,6.45,12.86,13.85,-25.99,11.49,28.45,80.0-90.0
80.0,1070.0,-3.12,-4.87,6.49,-9.18,6.08,-8.33,28.46,80.0-90.0
80.0,2927.0,-3.37,-5.75,9.3,-14.93,20.42,-10.56,28.44,80.0-90.0
80.0,0.0,1.35,6.03,11.77,12.92,-7.94,8.91,28.47,80.0-90.0
80.0,432.0,-2.5,-6.02,5.53,-11.02,12.28,-9.99,28.48,80.0-90.0
80.0,741.0,-2.13,-4.63,10.5,-13.08,16.79,-7.98,28.46,80.0-90.0
80.0,1819.0,0.91,7.23,12.08,14.67,-12.92,12.21,28.45,80.0-90.0
80.0,679.0,1.01,3.84,10.37,8.14,-17.63,7.87,28.45,80.0-90.0
80.0,2742.0,-0.59,-3.73,11.19,-10.61,13.24,-6.38,28.45,80.0-90.0
80.0,1983.0,0.81,7.82,12.61,15.45,-18.46,13.08,28.46,80.0-90.0
80.0,2547.0,-0.71,2.76,9.65,5.63,-14.31,5.02,28.46,80.0-90.0
80.0,1830.0,-1.82,-7.53,4.35,-13.48,24.92,-14.54,28.45,80.0-90.0
80.0,2308.0,0.85,8.14,13.4,15.71,-23.34,13.99,28.46,80.0-90.0
80.0,1514.0,-2.37,1.58,9.01,3.2,-11.24,3.1,28.44,80.0-90.0
80.0,492.0,-2.0,-7.71,4.08,-14.2,28.25,-14.3,28.47,80.0-90.0
80.0,1232.0,2.71,-1.33,12.1,-2.98,7.44,-1.27,28.45,80.0-90.0
80.0,2804.0,-3.48,0.44,8.45,0.73,-8.43,1.31,28.46,80.0-90.0
80.0,266.0,-2.23,-7.6,4.28,-14.52,29.46,-14.19,28.48,80.0-90.0
80.0,2459.0,3.16,-0.12,12.06,0.39,5.81,0.44,28.47,80.0-90.0
80.0,1441.0,1.96,7.93,14.82,14.87,-29.73,14.94,28.44,80.0-90.0
80.0,1360.0,-2.56,-7.45,4.59,-14.84,29.69,-14.57,28.45,80.0-90.0
80.0,1810.0,3.17,1.06,12.01,3.58,4.22,1.95,28.44,80.0-90.0
80.0,1418.0,2.48,7.57,14.7,14.2,-29.7,14.43,28.48,80.0-90.0
80.0,1520.0,-4.28,-2.37,7.06,-5.1,-1.29,-4.44,28.47,80.0-90.0
80.0,2242.0,2.81,2.22,11.9,6.27,2.19,4.23,28.44,80.0-90.0
80.0,0.0,3.07,7.09,14.22,13.36,-28.95,14.3,28.46,80.0-90.0
80.0,766.0,-3.94,-3.42,6.64,-6.8,1.9,-5.92,28.47,80.0-90.0
80.0,2927.0,-3.36,-6.39,7.24,-14.9,24.8,-12.1,28.45,80.0-90.0
80.0,0.0,3.38,6.46,13.45,12.66,-27.38,12.89,28.45,80.0-90.0
80.0,2803.0,-3.52,-4.43,6.21,-8.41,5.56,-8.1,28.46,80.0-90.0
80.0,2927.0,-3.32,-5.87,8.54,-14.53,22.01,-11.41,28.48,80.0-90.0
80.0,1281.0,3.36,5.78,12.5,11.61,-25.17,11.44,28.45,80.0-90.0
80.0,1648.0,-2.93,-5.35,5.77,-9.98,9.77,-9.86,28.45,80.0-90.0
80.0,2926.0,-2.87,-5.18,9.71,-13.75,19.28,-9.92,28.45,80.0-90.0
80.0,1197.0,1.31,6.34,11.76,13.42,-9.27,10.38,28.44,80.0-90.0
80.0,2530.0,-2.45,-6.12,5.49,-11.27,14.03,-10.89,28.42,80.0-90.0
80.0,1209.0,-2.12,-4.57,10.6,-12.62,16.2,-8.21,28.45,80.0-90.0
80.0,2926.0,0.97,7.01,12.02,14.41,-13.18,11.8,28.46,80.0-90.0
80.0,1712.0,1.36,3.87,10.31,8.17,-17.62,7.84,28.45,80.0-90.0
80.0,644.0,-1.01,-3.93,11.31,-10.76,13.42,-7.08,28.45,80.0-90.0
80.0,1287.0,0.81,7.53,12.44,15.18,-17.4,12.62,28.45,80.0-90.0
80.0,2000.0,0.07,3.02,9.72,6.6,-15.01,6.01,28.47,80.0-90.0
80.0,499.0,-1.97,-7.23,4.58,-12.91,23.6,-13.76,28.45,80.0-90.0
80.0,2446.0,0.87,7.89,12.95,15.42,-21.4,13.82,28.46,80.0-90.0
80.0,1535.0,-1.33,2.22,9.22,4.57,-12.5,4.55,28.46,80.0-90.0
80.0,464.0,-1.95,-7.44,4.35,-13.63,26.48,-14.08,28.46,80.0-90.0
80.0,2928.0,1.94,-2.02,11.96,-5.21,8.48,-2.94,28.45,80.0-90.0
80.0,676.0,-2.61,1.42,8.68,2.56,-9.71,2.81,28.44,80.0-90.0
80.0,1421.0,-2.06,-7.61,4.15,-14.17,28.66,-14.54,28.44,80.0-90.0
80.0,1872.0,2.6,-1.24,12.12,-2.61,6.98,-1.72,28.44,80.0-90.0
80.0,0.0,1.45,7.98,14.35,14.9,-28.71,14.86,28.44,80.0-90.0
80.0,1011.0,-2.25,-7.66,4.24,-14.39,29.62,-14.83,28.46,80.0-90.0
80.0,2693.0,3.0,-0.37,12.09,0.09,5.74,-0.14,28.45,80.0-90.0
80.0,0.0,1.8,7.87,14.76,14.64,-30.05,15.11,28.44,80.0-90.0
80.0,1938.0,-4.15,-0.79,7.57,-2.08,-4.54,-1.57,28.44,80.0-90.0
80.0,2925.0,3.19,0.61,12.17,2.54,4.26,1.75,28.44,80.0-90.0
80.0,0.0,2.22,7.69,14.81,14.22,-30.45,15.17,28.44,80.0-90.0
80.0,2032.0,-4.29,-1.66,7.06,-4.09,-1.92,-3.37,28.44,80.0-90.0
80.0,2921.0,-2.88,-7.07,5.34,-14.94,28.59,-13.73,28.44,80.0-90.0
80.0,361.0,2.69,7.31,14.53,13.64,-29.98,14.4,28.45,80.0-90.0
80.0,1477.0,-4.17,-2.69,6.76,-6.03,0.43,-5.33,28.44,80.0-90.0
80.0,611.0,-3.19,-6.65,6.35,-14.91,27.14,-13.2,28.44,80.0-90.0
80.0,1488.0,2.55,3.2,11.99,8.31,-0.25,5.48,28.47,80.0-90.0
80.0,1004.0,-3.91,-3.61,6.46,-7.34,3.65,-6.85,28.44,80.0-90.0
80.0,1241.0,-3.31,-6.26,7.55,-14.64,24.77,-12.02,28.44,80.0-90.0
80.0,1251.0,2.11,4.3,11.84,10.49,-2.75,7.35,28.46,80.0-90.0
80.0,1739.0,3.31,6.02,12.81,11.99,-25.81,12.45,28.44,80.0-90.0
80.0,0.0,-3.27,-5.73,8.71,-14.06,22.01,-10.88,28.43,80.0-90.0
80.0,1793.0,1.7,5.38,11.84,12.2,-5.94,8.79,28.44,80.0-90.0
80.0,0.0,3.04,5.4,11.91,10.77,-23.51,10.97,28.44,80.0-90.0
80.0,0.0,-2.79,-5.67,5.59,-10.78,12.06,-10.53,28.45,80.0-90.0
80.0,2086.0,1.43,6.21,12.05,13.22,-9.68,9.98,28.45,80.0-90.0
80.0,1011.0,2.46,4.63,11.04,9.46,-21.03,9.45,28.46,80.0-90.0
80.0,0.0,-2.43,-6.33,5.28,-11.6,15.98,-11.55,28.46,80.0-90.0
80.0,1703.0,-1.64,-4.39,10.97,-11.68,15.39,-7.8,28.43,80.0-90.0
80.0,0.0,1.56,3.86,10.33,8.01,-18.23,8.25,28.45,80.0-90.0
80.0,944.0,-2.24,-6.75,4.97,-12.04,19.84,-12.28,28.44,80.0-90.0
80.0,2775.0,-0.59,-3.65,11.54,-9.83,12.47,-6.29,28.43,80.0-90.0
80.0,0.0,0.78,7.63,12.73,14.99,-19.22,13.06,28.43,80.0-90.0
80.0,1077.0,-1.92,-7.18,4.71,-12.59,22.91,-13.38,28.43,80.0-90.0
80.0,1731.0,0.55,-2.89,11.74,-7.71,10.87,-5.19,28.41,80.0-90.0
80.0,0.0,0.83,7.8,13.24,14.92,-23.09,13.64,28.44,80.0-90.0
80.0,1861.0,-1.51,2.15,8.93,3.98,-11.56,3.92,28.44,80.0-90.0
80.0,2064.0,1.53,-2.18,11.99,-5.59,8.84,-3.52,28.43,80.0-90.0
80.0,1324.0,1.11,7.84,13.69,14.75,-25.75,14.45,28.45,80.0-90.0
80.0,2511.0,-2.71,1.33,8.54,1.98,-9.33,2.55,28.44,80.0-90.0
80.0,956.0,-2.13,-7.61,4.23,-13.88,29.06,-14.36,28.45,80.0-90.0
80.0,1166.0,1.27,7.93,14.17,14.83,-28.18,15.05,28.44,80.0-90.0
80.0,1968.0,-3.46,0.38,8.15,0.18,-7.1,0.61,28.45,80.0-90.0
80.0,1156.0,-2.26,-7.54,4.21,-13.94,30.1,-14.62,28.45,80.0-90.0
80.0,2928.0,3.15,-0.19,12.28,0.42,5.0,0.17,28.44,80.0-90.0
80.0,2453.0,-4.08,-0.46,7.69,-1.67,-4.97,-1.34,28.44,80.0-90.0
80.0,187.0,-2.48,-7.33,4.45,-14.3,30.17,-14.42,28.41,80.0-90.0
80.0,2423.0,3.11,0.82,12.33,2.85,3.5,1.98,28.44,80.0-90.0
80.0,1003.0,2.41,7.54,14.6,13.93,-30.21,15.0,28.45,80.0-90.0
80.0,474.0,-2.67,-7.11,5.07,-14.67,29.23,-13.66,28.43,80.0-90.0
80.0,2925.0,3.02,1.73,12.3,5.12,2.11,3.71,28.44,80.0-90.0
80.0,1319.0,2.81,7.12,14.45,13.29,-30.13,14.4,28.41,80.0-90.0
80.0,931.0,-3.96,-2.92,6.81,-6.32,0.89,-5.43,28.43,80.0-90.0
80.0,2700.0,2.67,2.7,12.17,7.46,0.14,4.96,28.45,80.0-90.0
80.0,1153.0,3.2,6.66,13.78,12.78,-28.53,13.38,28.41,80.0-90.0
80.0,2064.0,-3.82,-3.7,6.38,-7.5,4.1,-7.0,28.44,80.0-90.0
80.0,2928.0,-3.3,-6.18,7.66,-14.33,24.33,-11.99,28.44,80.0-90.0
80.0,753.0,3.35,6.22,13.06,12.03,-26.71,12.56,28.43,80.0-90.0
80.0,1322.0,-3.46,-4.46,6.13,-8.75,7.12,-8.15,28.43,80.0-90.0
80.0,1962.0,-3.22,-5.59,8.66,-13.75,21.89,-10.51,28.45,80.0-90.0
80.0,2285.0,1.74,5.28,12.01,11.87,-6.49,8.82,28.42,80.0-90.0
80.0,2926.0,-3.12,-5.23,5.79,-10.09,10.58,-9.54,28.43,80.0-90.0
80.0,2731.0,-2.74,-5.08,9.73,-13.13,19.17,-9.67,28.42,80.0-90.0
80.0,2352.0,1.26,6.08,12.03,12.95,-10.17,9.8,28.44,80.0-90.0
80.0,1946.0,2.34,4.68,10.85,9.23,-20.41,9.23,28.44,80.0-90.0
80.0,330.0,-1.98,-4.54,10.75,-11.98,16.23,-8.54,28.43,80.0-90.0
80.0,1601.0,1.02,6.76,12.13,14.14,-13.76,11.25,28.43,80.0-90.0
80.0,2927.0,1.44,3.95,10.29,7.91,-17.75,7.95,28.43,80.0-90.0
80.0,751.0,-2.19,-6.84,4.88,-11.98,19.83,-12.5,28.45,80.0-90.0
80.0,2693.0,0.86,7.35,12.39,15.01,-17.42,12.8,28.44,80.0-90.0
80.0,1127.0,0.11,3.2,9.77,6.17,-15.13,6.42,28.43,80.0-90.0
80.0,0.0,-2.08,-7.18,4.51,-12.64,23.87,-13.46,28.42,80.0-90.0
80.0,2928.0,0.72,-2.79,11.97,-7.85,9.91,-4.82,28.45,80.0-90.0
80.0,682.0,-1.17,2.37,9.16,4.42,-12.37,4.53,28.44,80.0-90.0
80.0,755.0,-1.95,-7.4,4.22,-13.19,26.86,-14.33,28.41,80.0-90.0
80.0,2928.0,1.83,-2.09,12.26,-5.65,7.9,-3.3,28.43,80.0-90.0
80.0,0.0,1.01,7.9,13.59,15.24,-25.93,14.69,28.45,80.0-90.0
80.0,86.0,-1.87,-7.53,4.12,-13.65,28.94,-14.42,28.43,80.0-90.0
80.0,2202.0,2.48,-1.31,12.4,-3.04,6.45,-1.45,28.42,80.0-90.0
80.0,0.0,1.25,7.82,14.26,14.84,-28.65,15.17,28.43,80.0-90.0
80.0,1975.0,-3.71,0.31,8.0,-0.2,-6.37,0.35,28.44,80.0-90.0
80.0,1915.0,2.94,-0.34,12.39,-0.14,5.2,0.03,28.42,80.0-90.0
80.0,0.0,1.65,7.76,14.62,14.48,-30.14,14.95,28.42,80.0-90.0
80.0,1375.0,-4.24,-0.65,7.63,-2.29,-4.33,-1.69,28.45,80.0-90.0
80.0,1134.0,-2.49,-7.25,4.52,-14.1,30.46,-14.31,28.44,80.0-90.0
80.0,1233.0,2.08,7.56,14.64,13.97,-30.5,14.72,28.44,80.0-90.0
80.0,2483.0,-4.27,-1.68,7.14,-4.45,-1.88,-3.43,28.44,80.0-90.0
80.0,800.0,-2.73,-7.01,5.21,-14.44,29.26,-13.5,28.44,80.0-90.0
80.0,966.0,2.91,2.1,12.3,5.85,1.14,4.14,28.42,80.0-90.0
80.0,2406.0,-4.11,-2.72,6.81,-6.12,0.48,-4.91,28.44,80.0-90.0
80.0,0.0,-3.13,-6.6,6.24,-14.12,27.34,-12.73,28.43,80.0-90.0
80.0,1632.0,2.59,3.13,12.17,8.37,-1.06,5.52,28.44,80.0-90.0
80.0,1597.0,3.31,6.49,13.34,12.43,-27.49,12.91,28.44,80.0-90.0
80.0,0.0,-3.14,-6.13,7.45,-13.78,24.7,-11.98,28.42,80.0-90.0
80.0,1970.0,1.99,4.29,12.03,10.16,-3.56,7.02,28.44,80.0-90.0
80.0,1130.0,3.38,5.9,12.57,11.56,-25.6,11.87,28.42,80.0-90.0
80.0,402.0,-3.18,-5.01,5.97,-9.6,8.75,-9.08,28.41,80.0-90.0
80.0,1456.0,1.72,5.39,12.02,11.97,-6.74,8.91,28.41,80.0-90.0
80.0,0.0,2.93,5.21,11.57,10.23,-22.77,10.83,28.43,80.0-90.0
80.0,394.0,-2.77,-5.83,5.59,-10.99,13.1,-10.5,28.42,80.0-90.0
80.0,1425.0,-2.22,-4.69,10.36,-12.5,17.01,-8.67,28.43,80.0-90.0
80.0,152.0,2.18,4.4,10.67,8.97,-19.57,9.05,28.42,80.0-90.0
80.0,587.0,-2.38,-6.53,5.32,-11.68,17.31,-12.04,28.44,80.0-90.0
80.0,1261.0,-1.18,-4.05,11.21,-10.79,14.14,-7.34,28.42,80.0-90.0
80.0,0.0,0.84,7.3,12.58,14.9,-17.19,12.33,28.44,80.0-90.0
80.0,1715.0,-2.14,-6.96,4.83,-12.18,21.4,-13.14,28.43,80.0-90.0
80.0,2243.0,0.09,-3.19,11.67,-8.66,11.74,-5.58,28.42,80.0-90.0
80.0,0.0,0.74,7.7,13.06,15.06,-21.57,13.58,28.46,80.0-90.0
80.0,1895.0,-1.09,2.47,9.05,4.44,-12.31,4.9,28.42,80.0-90.0
80.0,1195.0,1.15,-2.47,12.01,-6.73,9.22,-3.94,28.43,80.0-90.0
80.0,1083.0,0.8,7.93,13.52,15.04,-24.86,14.24,28.43,80.0-90.0
80.0,1137.0,-2.3,1.52,8.66,2.19,-9.88,2.76,28.43,80.0-90.0
80.0,1200.0,-2.14,-7.49,4.06,-13.4,29.15,-14.47,28.42,80.0-90.0
80.0,1327.0,1.09,7.85,14.16,14.78,-27.93,14.57,28.43,80.0-90.0
80.0,1255.0,-3.34,0.48,8.24,0.27,-7.55,0.84,28.42,80.0-90.0
80.0,176.0,-2.36,-7.53,4.05,-13.72,30.14,-14.47,28.42,80.0-90.0
80.0,2029.0,3.18,-0.13,12.39,0.36,5.03,0.47,28.44,80.0-90.0
80.0,2033.0,-4.07,-0.51,7.75,-1.88,-5.13,-1.05,28.43,80.0-90.0
80.0,244.0,-2.57,-7.28,4.36,-13.91,30.37,-14.04,28.43,80.0-90.0
80.0,1854.0,3.27,0.98,12.36,3.11,3.15,2.15,28.41,80.0-90.0
80.0,1279.0,2.34,7.43,14.5,13.91,-29.96,14.42,28.44,80.0-90.0
80.0,0.0,-2.95,-6.84,5.04,-13.89,29.26,-13.49,28.43,80.0-90.0
80.0,1408.0,2.97,2.02,12.4,5.41,1.06,3.75,28.42,80.0-90.0
80.0,1669.0,2.89,6.99,13.97,13.16,-28.86,13.69,28.42,80.0-90.0
80.0,1354.0,-3.9,-3.25,6.9,-7.04,1.67,-5.84,28.41,80.0-90.0
80.0,2354.0,2.49,3.29,12.16,8.23,-0.92,5.87,28.41,80.0-90.0
80.0,0.0,3.38,6.27,13.16,12.25,-27.14,12.88,28.4,80.0-90.0
80.0,218.0,-3.41,-4.31,6.5,-8.67,5.42,-7.68,28.44,80.0-90.0
80.0,2928.0,-3.24,-5.72,8.22,-13.52,22.97,-10.91,28.44,80.0-90.0
80.0,737.0,3.3,5.7,12.1,11.48,-24.51,11.49,28.44,80.0-90.0
80.0,1777.0,-2.92,-5.28,6.13,-10.01,9.71,-9.57,28.42,80.0-90.0
80.0,2651.0,-2.81,-4.94,9.5,-12.55,19.86,-9.61,28.43,80.0-90.0
80.0,176.0,1.35,6.22,12.23,12.95,-10.73,10.04,28.4,80.0-90.0
80.0,1127.0,-2.47,-6.1,5.61,-11.19,14.34,-11.17,28.43,80.0-90.0
80.0,2538.0,-1.92,-4.29,10.65,-11.62,16.01,-7.87,28.42,80.0-90.0
80.0,1535.0,0.98,6.98,12.33,14.02,-15.02,11.78,28.42,80.0-90.0
80.0,2922.0,0.95,3.59,10.0,6.92,-16.49,7.39,28.41,80.0-90.0
80.0,2928.0,-0.63,-3.55,11.51,-9.82,12.73,-5.97,28.42,80.0-90.0
80.0,2077.0,0.77,7.46,12.65,14.95,-19.36,12.95,28.42,80.0-90.0
80.0,1804.0,-0.62,2.58,9.44,4.97,-13.65,5.25,28.42,80.0-90.0
80.0,1086.0,-2.05,-7.39,4.33,-12.61,25.69,-13.99,28.4,80.0-90.0
80.0,1920.0,0.74,7.76,13.31,15.42,-23.66,13.87,28.42,80.0-90.0
80.0,2782.0,-2.2,1.6,8.93,2.65,-10.52,2.91,28.44,80.0-90.0
80.0,1677.0,-2.07,-7.43,4.08,-13.23,28.88,-14.51,28.42,80.0-90.0
80.0,2928.0,2.58,-1.01,12.36,-2.71,6.34,-1.34,28.42,80.0-90.0
80.0,2329.0,-3.49,0.54,8.44,-0.05,-7.5,0.85,28.43,80.0-90.0
80.0,827.0,-2.17,-7.45,4.09,-13.92,30.19,-14.25,28.43,80.0-90.0
80.0,2928.0,3.12,0.11,12.41,0.59,4.51,0.89,28.42,80.0-90.0
80.0,1872.0,2.03,7.55,14.44,14.28,-29.9,14.88,28.41,80.0-90.0
80.0,720.0,-2.52,-7.26,4.56,-14.24,30.46,-13.96,28.42,80.0-90.0
80.0,2927.0,3.02,1.41,12.42,4.21,2.17,2.96,28.42,80.0-90.0
80.0,2062.0,2.72,7.12,14.15,13.77,-29.21,14.05,28.42,80.0-90.0
80.0,590.0,-4.09,-2.86,7.13,-6.28,0.43,-5.39,28.41,80.0-90.0
80.0,2927.0,2.61,2.87,12.39,7.46,-0.68,5.04,28.41,80.0-90.0
80.0,1428.0,3.26,6.51,13.3,12.81,-27.15,13.02,28.42,80.0-90.0
80.0,29.0,-3.71,-4.05,6.59,-8.23,4.54,-7.39,28.42,80.0-90.0
80.0,2822.0,1.95,4.43,12.15,10.13,-3.85,7.25,28.43,80.0-90.0
80.0,587.0,3.21,5.85,12.15,11.39,-24.56,11.73,28.41,80.0-90.0
80.0,1392.0,-2.91,-5.43,6.07,-10.23,9.57,-9.64,28.43,80.0-90.0
80.0,2927.0,-2.62,-4.81,9.72,-12.79,18.88,-9.09,28.4,80.0-90.0
80.0,422.0,2.52,4.82,10.93,9.42,-20.67,9.55,28.4,80.0-90.0
80.0,2128.0,-2.39,-6.46,5.49,-11.72,15.16,-11.66,28.4,80.0-90.0
80.0,1360.0,-1.38,-4.06,10.87,-11.17,15.04,-7.4,28.4,80.0-90.0
80.0,882.0,0.85,7.23,12.57,14.75,-16.72,12.18,28.41,80.0-90.0
80.0,1722.0,-2.08,-7.05,4.84,-12.3,21.11,-13.0,28.42,80.0-90.0
80.0,2307.0,0.3,-2.96,11.56,-8.32,11.62,-5.07,28.43,80.0-90.0
80.0,410.0,0.86,7.78,13.05,15.38,-22.06,13.72,28.39,80.0-90.0
80.0,2281.0,-1.72,1.98,9.1,3.53,-11.6,3.89,28.43,80.0-90.0
80.0,2272.0,1.88,-1.87,12.05,-5.32,8.35,-2.88,28.44,80.0-90.0
80.0,2347.0,1.04,7.93,13.87,15.16,-26.41,14.56,28.39,80.0-90.0
80.0,1789.0,-3.18,0.73,8.49,0.41,-8.46,1.19,28.41,80.0-90.0
80.0,0.0,-2.24,-7.41,3.98,-13.81,30.39,-14.48,28.42,80.0-90.0
80.0,1591.0,1.64,7.79,14.45,14.92,-28.76,14.82,28.41,80.0-90.0
80.0,1242.0,-4.16,-0.73,8.02,-2.6,-5.58,-1.53,28.41,80.0-90.0
80.0,480.0,-2.59,-7.28,4.35,-13.95,30.54,-13.98,28.43,80.0-90.0
80.0,2928.0,3.11,1.25,12.43,3.93,2.71,2.73,28.42,80.0-90.0
80.0,2642.0,-4.28,-2.15,7.53,-5.25,-2.34,-3.92,28.42,80.0-90.0
80.0,637.0,-3.15,-6.64,5.55,-13.57,28.62,-12.73,28.42,80.0-90.0
80.0,1030.0,2.64,2.81,12.33,7.15,-0.1,5.0,28.4,80.0-90.0
80.0,0.0,-0.74,-0.77,9.85,3.03,-0.76,-0.85,27.77,80.0-90.0
80.0,1838.0,1.15,-4.15,9.28,-7.56,5.2,-2.93,27.79,80.0-90.0
80.0,2559.0,0.69,3.82,10.88,7.12,-5.01,4.36,27.76,80.0-90.0
80.0,1290.0,0.04,-4.83,9.81,-9.8,3.7,-3.17,27.78,80.0-90.0
80.0,2547.0,2.19,2.79,11.62,2.42,-9.38,4.82,27.77,80.0-90.0
80.0,1424.0,-0.73,-0.95,9.53,3.05,0.14,-0.02,27.77,80.0-90.0
80.0,1706.0,0.7,-4.99,9.57,-9.85,5.61,-4.23,27.78,80.0-90.0
80.0,2871.0,-2.21,3.27,10.25,7.49,-5.32,2.93,27.8,80.0-90.0
80.0,2218.0,-1.52,-5.6,9.3,-12.18,6.26,-7.55,27.75,80.0-90.0
80.0,1433.0,0.49,3.46,11.21,0.88,-6.84,2.84,27.78,80.0-90.0
80.0,0.0,-1.78,4.26,9.77,10.37,-5.27,4.01,27.78,80.0-90.0
80.0,2347.0,1.03,-1.9,9.67,-7.01,5.1,-2.46,27.75,80.0-90.0
80.0,2928.0,0.82,6.87,10.56,15.83,-7.88,9.4,27.77,80.0-90.0
80.0,254.0,-1.72,-4.32,8.94,-4.34,2.71,-4.65,27.76,80.0-90.0
80.0,2846.0,0.14,-4.81,9.45,-12.18,8.05,-4.58,27.73,80.0-90.0
80.0,1371.0,-1.58,3.09,10.53,8.92,-8.1,4.46,27.76,80.0-90.0
80.0,1730.0,-2.08,-7.31,7.65,-17.43,9.59,-10.74,27.77,80.0-90.0
80.0,1833.0,1.16,2.94,9.28,3.41,7.91,3.43,27.78,80.0-90.0
80.0,2286.0,2.29,6.09,11.73,14.95,-16.18,8.21,27.75,80.0-90.0
80.0,2927.0,-1.65,-5.63,9.05,-14.32,13.94,-8.53,27.77,80.0-90.0
80.0,1044.0,0.96,7.21,12.08,13.71,-7.3,9.98,27.76,80.0-90.0
80.0,1510.0,-2.16,2.08,10.78,4.8,-14.73,2.81,27.76,80.0-90.0
80.0,2928.0,-2.37,-7.78,4.81,-15.6,20.44,-12.36,27.76,80.0-90.0
80.0,1152.0,1.99,7.76,14.63,15.42,-22.96,13.66,27.75,80.0-90.0
80.0,1023.0,-3.22,-2.89,8.69,-5.5,-7.47,-3.34,27.77,80.0-90.0
80.0,2928.0,-3.53,-6.56,6.72,-14.65,22.65,-10.73,27.76,80.0-90.0
80.0,530.0,3.07,6.07,12.53,13.18,-23.11,11.06,27.79,80.0-90.0
80.0,1561.0,-2.1,-6.29,6.83,-11.33,5.12,-9.87,27.77,80.0-90.0
80.0,2430.0,-1.77,-4.4,9.47,-10.72,17.52,-8.19,27.78,80.0-90.0
80.0,0.0,0.88,7.92,13.04,15.02,-14.18,11.51,27.76,80.0-90.0
80.0,1197.0,-1.85,-7.56,5.22,-13.95,18.75,-13.5,27.77,80.0-90.0
80.0,2671.0,1.85,-2.01,10.29,-4.19,13.65,-3.25,27.77,80.0-90.0
80.0,1575.0,1.13,8.15,15.01,15.21,-25.34,14.57,27.77,80.0-90.0
80.0,1846.0,-3.59,-0.24,8.8,-2.05,-11.22,0.63,27.74,80.0-90.0
80.0,1658.0,3.27,0.47,10.95,2.79,10.2,1.79,27.78,80.0-90.0
80.0,1168.0,2.39,7.36,15.51,14.02,-29.43,14.37,27.79,80.0-90.0
80.0,2125.0,-3.74,-2.42,7.8,-6.76,-5.96,-3.92,27.75,80.0-90.0
80.0,2927.0,-3.8,-6.55,5.34,-13.14,27.37,-13.02,27.77,80.0-90.0
80.0,1521.0,3.38,6.41,14.22,12.55,-28.31,12.01,27.78,80.0-90.0
80.0,2799.0,-2.91,-4.53,7.13,-9.97,0.25,-7.77,27.79,80.0-90.0
80.0,1984.0,-3.83,-5.72,7.54,-12.14,23.7,-11.09,27.76,80.0-90.0
80.0,1991.0,1.45,5.93,12.0,12.4,-4.19,9.17,27.76,80.0-90.0
80.0,2324.0,-2.1,-5.95,6.31,-11.74,7.79,-9.43,27.78,80.0-90.0
80.0,1884.0,-2.64,-4.82,9.33,-10.49,19.42,-8.21,27.76,80.0-90.0
80.0,2812.0,1.01,7.07,12.73,13.56,-11.96,11.6,27.78,80.0-90.0
80.0,2387.0,0.87,3.78,10.45,7.07,-18.24,7.57,27.76,80.0-90.0
80.0,1474.0,-0.82,-3.9,10.51,-7.97,15.98,-6.61,27.77,80.0-90.0
80.0,1872.0,0.76,7.69,13.53,14.08,-19.07,12.41,27.77,80.0-90.0
80.0,2928.0,-0.81,2.68,9.54,4.42,-15.1,4.71,27.75,80.0-90.0
80.0,270.0,-1.81,-7.31,4.44,-12.72,24.53,-13.81,27.76,80.0-90.0
80.0,2215.0,0.99,7.95,14.44,13.97,-24.9,13.67,27.79,80.0-90.0
80.0,1535.0,-2.44,1.62,8.8,1.63,-12.43,3.13,27.76,80.0-90.0
80.0,386.0,-2.28,-7.44,3.93,-12.85,28.6,-13.69,27.77,80.0-90.0
80.0,2925.0,2.74,-1.34,11.61,-0.78,10.31,-1.37,27.75,80.0-90.0
80.0,1658.0,-3.42,0.62,8.08,-0.74,-9.99,1.43,27.77,80.0-90.0
80.0,1168.0,-2.65,-7.37,3.74,-12.9,30.78,-14.07,27.77,80.0-90.0
80.0,1733.0,3.12,-0.25,11.87,2.01,8.67,-0.11,27.75,80.0-90.0
80.0,329.0,1.95,7.62,15.87,12.8,-32.2,14.34,27.76,80.0-90.0
80.0,326.0,-2.94,-7.25,4.02,-12.99,31.07,-14.45,27.79,80.0-90.0
80.0,1821.0,3.18,0.85,11.79,4.56,7.15,1.48,27.75,80.0-90.0
80.0,1375.0,2.46,7.29,15.81,12.2,-32.48,14.19,27.76,80.0-90.0
80.0,688.0,-4.11,-1.79,6.93,-5.5,-3.96,-3.04,27.77,80.0-90.0
80.0,2235.0,3.07,1.87,11.81,6.68,5.35,3.6,27.79,80.0-90.0
80.0,1111.0,2.94,6.99,15.36,11.76,-32.14,14.28,27.77,80.0-90.0
80.0,1391.0,-3.73,-2.75,6.6,-7.07,-1.44,-4.47,27.75,80.0-90.0
80.0,2509.0,-3.84,-6.53,5.82,-12.7,28.34,-12.77,27.77,80.0-90.0
80.0,397.0,3.37,6.55,14.69,11.13,-30.71,13.08,27.78,80.0-90.0
80.0,2240.0,-3.44,-3.56,6.26,-8.05,1.44,-6.39,27.76,80.0-90.0
80.0,1489.0,-3.96,-6.28,6.73,-12.55,26.82,-12.53,27.75,80.0-90.0
80.0,866.0,2.25,4.26,11.93,10.65,-0.57,6.64,27.75,80.0-90.0
80.0,1600.0,-3.12,-4.36,5.99,-9.25,4.29,-7.52,27.76,80.0-90.0
80.0,0.0,-3.79,-5.88,7.7,-12.14,24.65,-11.18,27.76,80.0-90.0
80.0,1681.0,1.83,5.13,12.1,11.62,-3.9,8.44,27.76,80.0-90.0
80.0,1685.0,3.25,5.52,12.77,9.56,-26.21,11.47,27.76,80.0-90.0
80.0,121.0,-3.44,-5.55,8.67,-11.77,22.42,-10.18,27.77,80.0-90.0
80.0,2315.0,1.58,5.72,12.15,12.4,-6.6,9.12,27.76,80.0-90.0
80.0,207.0,2.94,5.05,12.05,8.86,-24.28,10.03,27.75,80.0-90.0
80.0,1088.0,-2.35,-5.57,5.39,-10.53,11.91,-10.25,27.76,80.0-90.0
80.0,1310.0,1.3,6.37,12.21,13.1,-9.29,9.63,27.77,80.0-90.0
80.0,873.0,2.39,4.68,11.56,8.28,-22.79,9.29,27.77,80.0-90.0
80.0,702.0,-2.14,-6.01,5.11,-10.9,14.78,-10.71,27.77,80.0-90.0
80.0,2927.0,-2.22,-4.81,10.11,-10.11,18.26,-8.39,27.76,80.0-90.0
80.0,177.0,1.83,4.23,10.89,7.43,-20.56,8.93,27.74,80.0-90.0
80.0,1866.0,-1.94,-6.3,4.96,-11.37,16.99,-10.93,27.77,80.0-90.0
80.0,2928.0,-1.54,-4.43,10.56,-9.28,16.58,-7.54,27.77,80.0-90.0
80.0,0.0,1.12,7.23,12.94,13.53,-16.0,11.89,27.77,80.0-90.0
80.0,1916.0,-1.95,-6.55,4.75,-11.65,19.45,-12.04,27.75,80.0-90.0
80.0,2487.0,-0.92,-4.12,10.89,-8.35,15.21,-7.35,27.75,80.0-90.0
80.0,2372.0,1.01,7.45,13.14,13.8,-18.32,12.08,27.76,80.0-90.0
80.0,1428.0,0.31,3.33,9.81,5.56,-16.7,6.39,27.74,80.0-90.0
80.0,0.0,-0.51,-3.84,11.22,-7.38,14.29,-6.52,27.77,80.0-90.0
80.0,639.0,0.99,7.66,13.42,13.83,-20.23,13.12,27.74,80.0-90.0
80.0,1895.0,-0.33,3.0,9.54,4.79,-15.65,6.21,27.76,80.0-90.0
80.0,59.0,-1.78,-7.03,4.44,-12.14,23.87,-12.59,27.75,80.0-90.0
80.0,1617.0,1.01,7.76,13.85,13.5,-23.02,13.66,27.73,80.0-90.0
80.0,1591.0,-0.93,2.72,9.14,4.19,-14.12,5.28,27.77,80.0-90.0
80.0,0.0,-1.76,-7.11,4.28,-12.23,25.84,-13.55,27.77,80.0-90.0
80.0,1939.0,0.89,-2.94,11.71,-5.1,11.53,-5.2,27.77,80.0-90.0
80.0,341.0,-1.34,2.37,8.75,3.52,-13.15,4.21,27.75,80.0-90.0
80.0,0.0,-1.88,-7.25,4.21,-12.55,26.88,-13.95,27.75,80.0-90.0
80.0,2161.0,1.25,-2.63,11.76,-4.14,11.48,-4.23,27.75,80.0-90.0
80.0,0.0,1.04,7.84,14.51,13.27,-26.91,14.48,27.76,80.0-90.0
80.0,2135.0,-1.99,-7.32,4.07,-12.55,28.13,-13.5,27.76,80.0-90.0
80.0,1669.0,1.68,-2.28,11.93,-3.19,10.49,-3.31,27.74,80.0-90.0
80.0,0.0,1.21,7.87,14.71,13.19,-28.11,14.56,27.75,80.0-90.0
80.0,1678.0,-2.45,1.6,8.15,1.78,-10.51,2.82,27.75,80.0-90.0
80.0,1867.0,2.06,-1.96,12.04,-2.34,9.57,-3.23,27.75,80.0-90.0
80.0,2349.0,1.28,7.9,15.01,13.0,-29.4,14.21,27.75,80.0-90.0
80.0,2089.0,-2.88,1.3,7.94,1.11,-9.83,2.03,27.75,80.0-90.0
80.0,0.0,-2.12,-7.45,3.93,-12.79,30.33,-14.33,27.75,80.0-90.0
80.0,1023.0,1.36,7.84,15.23,12.69,-30.63,14.77,27.78,80.0-90.0
80.0,1840.0,-3.12,0.95,7.68,0.32,-8.69,1.91,27.76,80.0-90.0
80.0,0.0,-2.3,-7.41,3.9,-12.73,31.15,-14.07,27.74,80.0-90.0
80.0,2112.0,2.7,-1.2,12.17,0.01,8.63,-1.36,27.76,80.0-90.0
80.0,1861.0,-3.42,0.63,7.62,-0.46,-8.28,1.11,27.76,80.0-90.0
80.0,1305.0,-2.39,-7.37,3.97,-12.65,31.41,-14.42,27.77,80.0-90.0
80.0,2928.0,2.8,-0.79,12.23,0.97,8.12,-1.21,27.76,80.0-90.0
80.0,0.0,1.66,7.78,15.72,12.37,-32.43,14.69,27.75,80.0-90.0
80.0,0.0,-2.44,-7.37,4.03,-12.75,31.73,-14.56,27.77,80.0-90.0
80.0,2927.0,2.92,-0.48,12.19,1.73,7.53,-0.41,27.74,80.0-90.0
80.0,0.0,1.73,7.68,15.91,12.2,-33.1,15.01,27.79,80.0-90.0
80.0,1719.0,-3.94,-0.11,7.08,-2.07,-6.07,-0.23,27.75,80.0-90.0
80.0,2923.0,3.08,-0.08,12.25,2.62,7.07,0.46,27.75,80.0-90.0
80.0,1033.0,1.9,7.63,16.01,11.9,-33.73,15.05,27.77,80.0-90.0
80.0,469.0,-4.09,-0.48,6.85,-2.68,-4.86,-1.1,27.79,80.0-90.0
80.0,2897.0,-2.79,-7.23,4.22,-12.85,31.68,-14.42,27.76,80.0-90.0
80.0,1712.0,2.09,7.5,16.01,11.87,-33.79,14.6,27.74,80.0-90.0
80.0,1712.0,-4.23,-0.81,6.69,-3.3,-4.01,-1.86,27.75,80.0-90.0
80.0,128.0,-2.89,-7.21,4.39,-13.01,31.85,-14.31,27.77,80.0-90.0
80.0,2031.0,3.06,0.86,12.21,4.97,5.67,1.88,27.77,80.0-90.0
80.0,2191.0,-4.26,-1.05,6.48,-3.93,-2.89,-2.23,27.74,80.0-90.0
80.0,0.0,-2.97,-7.09,4.55,-12.96,31.58,-13.87,27.77,80.0-90.0
80.0,2547.0,3.04,1.24,12.25,5.61,4.4,2.53,27.75,80.0-90.0
80.0,1298.0,2.65,7.16,15.66,11.32,-33.44,14.42,27.78,80.0-90.0
80.0,328.0,-3.06,-7.06,4.98,-13.1,30.52,-13.81,27.75,80.0-90.0
80.0,2927.0,3.02,1.72,12.18,6.62,3.94,2.96,27.75,80.0-90.0
80.0,0.0,2.68,7.06,15.61,10.98,-33.49,13.98,27.74,80.0-90.0
80.0,1243.0,-4.09,-2.0,6.2,-5.48,-0.37,-4.03,27.73,80.0-90.0
80.0,2913.0,3.03,2.04,12.16,7.15,3.01,3.66,27.75,80.0-90.0
80.0,1072.0,2.91,6.93,15.44,11.01,-33.12,13.98,27.75,80.0-90.0
80.0,1732.0,-4.12,-2.33,6.0,-6.14,0.74,-4.41,27.77,80.0-90.0
80.0,2928.0,-3.31,-6.82,5.73,-12.9,29.23,-13.14,27.77,80.0-90.0
80.0,1339.0,3.14,6.72,15.23,10.58,-32.65,13.79,27.76,80.0-90.0
80.0,1963.0,-4.04,-2.69,5.92,-6.73,1.96,-5.13,27.76,80.0-90.0
80.0,1808.0,-3.41,-6.69,6.14,-12.9,28.39,-13.03,27.76,80.0-90.0
80.0,2458.0,2.62,3.19,12.08,9.18,0.75,5.19,27.8,80.0-90.0
80.0,2510.0,-3.83,-3.06,5.82,-7.18,3.23,-5.97,27.76,80.0-90.0
80.0,1268.0,-3.54,-6.49,6.52,-12.73,27.78,-12.68,27.76,80.0-90.0
80.0,2927.0,2.61,3.6,12.14,9.67,-0.6,5.97,27.75,80.0-90.0
80.0,2430.0,3.17,6.26,14.29,10.22,-30.3,12.97,27.76,80.0-90.0
80.0,761.0,-3.63,-6.29,6.98,-12.46,26.57,-12.04,27.76,80.0-90.0
80.0,1456.0,2.4,4.1,12.04,10.43,-1.55,6.76,27.75,80.0-90.0
80.0,2096.0,3.43,5.97,13.87,9.87,-29.43,12.5,27.76,80.0-90.0
80.0,577.0,-3.37,-4.01,5.66,-8.53,6.13,-7.42,27.76,80.0-90.0
80.0,2535.0,2.22,4.45,12.07,10.81,-2.97,7.1,27.76,80.0-90.0
80.0,363.0,3.27,5.82,13.43,9.81,-28.05,11.69,27.74,80.0-90.0
80.0,644.0,-3.1,-4.43,5.55,-9.02,7.93,-8.45,27.77,80.0-90.0
80.0,2928.0,-3.29,-5.74,8.43,-11.85,23.23,-11.2,27.75,80.0-90.0
80.0,157.0,3.1,5.32,12.43,9.38,-25.28,10.47,27.77,80.0-90.0
80.0,1765.0,-2.53,-5.3,5.59,-10.06,10.78,-9.7,27.74,80.0-90.0
80.0,2928.0,-2.37,-5.0,9.86,-10.75,18.7,-8.71,27.75,80.0-90.0
80.0,0.0,1.05,6.89,12.73,13.16,-12.98,10.94,27.77,80.0-90.0
80.0,0.0,-2.12,-6.58,5.2,-11.51,17.74,-11.72,27.76,80.0-90.0
80.0,2864.0,0.8,-2.87,10.76,-6.22,12.7,-4.09,27.75,80.0-90.0
80.0,1938.0,1.3,7.33,13.85,14.28,-22.07,12.54,27.78,80.0-90.0
80.0,112.0,-2.98,-0.57,9.26,-1.74,-8.6,-1.27,27.75,80.0-90.0
80.0,2928.0,2.28,2.15,10.73,3.47,5.59,3.02,27.74,80.0-90.0
80.0,2071.0,1.5,6.09,11.8,14.03,-17.24,9.74,27.75,80.0-90.0
80.0,653.0,-2.51,-5.69,7.68,-10.26,6.37,-9.17,27.76,80.0-90.0
80.0,438.0,0.9,-1.89,8.11,-5.56,12.55,-2.7,27.74,80.0-90.0
80.0,1194.0,-1.5,0.01,10.45,2.3,-8.75,0.06,27.76,80.0-90.0
80.0,2927.0,-0.55,-5.98,9.24,-13.89,8.64,-7.49,27.74,80.0-90.0
80.0,1361.0,1.37,3.66,10.89,5.93,-5.5,6.0,27.75,80.0-90.0
80.0,886.0,-0.51,-0.02,10.92,3.76,-5.17,0.08,27.75,80.0-90.0
80.0,2454.0,0.14,1.82,10.53,-1.44,-0.24,2.44,27.74,80.0-90.0
80.0,1611.0,-2.74,2.82,9.99,6.39,-4.02,2.21,27.77,80.0-90.0
80.0,1072.0,0.91,-3.93,10.55,-8.5,1.44,-3.66,27.75,80.0-90.0
80.0,1721.0,0.95,1.66,10.72,0.57,-8.71,2.4,27.76,80.0-90.0
80.0,2928.0,0.05,-3.04,10.1,-6.03,1.29,-2.5,27.75,80.0-90.0
80.0,1642.0,0.38,1.39,11.0,-0.49,-7.21,1.95,27.76,80.0-90.0
80.0,2027.0,0.27,-1.9,10.35,-0.3,1.12,-2.52,27.74,80.0-90.0
80.0,1872.0,0.73,-0.53,9.37,-2.46,1.04,1.07,27.75,80.0-90.0
80.0,1096.0,-0.43,-1.41,10.02,-0.11,2.11,-1.79,27.73,80.0-90.0
80.0,1931.0,0.97,-0.41,9.76,-2.28,-0.68,0.85,27.75,80.0-90.0
80.0,993.0,-2.17,0.7,9.43,1.03,1.14,-1.3,27.74,80.0-90.0
80.0,1644.0,0.51,-0.02,9.46,-0.4,1.2,1.54,27.76,80.0-90.0
80.0,1574.0,-1.01,-1.03,10.33,-1.65,2.71,-2.66,27.75,80.0-90.0
80.0,1709.0,0.1,0.27,9.87,-0.13,-2.1,1.56,27.76,80.0-90.0
80.0,846.0,-1.42,-0.14,8.71,0.3,3.04,-2.14,27.75,80.0-90.0
80.0,2121.0,0.57,0.27,10.6,-1.33,-1.17,1.43,27.73,80.0-90.0
80.0,2705.0,-1.6,-1.1,9.49,-1.81,4.04,-1.59,27.74,80.0-90.0
80.0,2870.0,0.52,0.67,9.99,0.8,-2.37,1.04,27.76,80.0-90.0
80.0,1649.0,-1.54,-0.85,9.23,-1.3,4.65,-1.37,27.75,80.0-90.0
80.0,2183.0,0.29,0.75,9.28,1.11,-0.89,0.92,27.75,80.0-90.0
80.0,982.0,0.74,-0.33,9.97,-1.09,0.75,0.98,27.74,80.0-90.0
80.0,851.0,-0.89,0.69,9.78,2.01,-0.95,-0.18,27.75,80.0-90.0
80.0,569.0,0.15,0.55,10.28,-0.51,-0.56,1.34,27.72,80.0-90.0
80.0,2054.0,-1.23,-0.05,9.41,0.74,-0.19,-0.9,27.74,80.0-90.0
80.0,1178.0,-0.17,0.33,9.74,0.01,-2.07,-0.02,27.75,80.0-90.0
80.0,883.0,-0.85,-0.85,9.76,-1.41,2.31,-0.69,27.76,80.0-90.0
80.0,2066.0,-0.65,0.9,9.38,1.67,-0.22,0.24,27.72,80.0-90.0
80.0,1932.0,0.59,0.46,10.04,-0.52,-1.55,1.25,27.72,80.0-90.0
80.0,571.0,-0.86,-0.7,9.47,-0.92,1.9,-0.61,27.74,80.0-90.0
80.0,1143.0,0.07,0.9,9.88,0.44,-2.31,0.29,27.75,80.0-90.0
80.0,1814.0,-0.24,-0.52,10.58,-0.55,-1.85,-3.94,27.75,80.0-90.0
80.0,1870.0,-1.08,-0.13,9.58,0.1,0.8,-6.64,27.75,80.0-90.0
80.0,1524.0,-0.46,0.26,9.68,1.09,1.32,-6.84,27.76,80.0-90.0
80.0,2065.0,-0.82,-0.39,10.15,-0.2,-1.05,-2.04,27.74,80.0-90.0
80.0,1575.0,0.22,-0.43,10.25,-1.26,0.3,2.52,27.75,80.0-90.0
80.0,20.0,-0.79,0.04,9.73,-0.58,0.02,5.65,27.74,80.0-90.0
80.0,2091.0,-0.56,0.02,9.85,-0.52,-1.08,7.8,27.76,80.0-90.0
80.0,1809.0,-0.15,-0.11,9.98,-1.33,0.14,6.3,27.73,80.0-90.0
80.0,1149.0,-0.38,-0.13,9.46,-1.26,0.62,2.52,27.74,80.0-90.0
80.0,790.0,-0.12,0.62,9.96,0.73,-0.4,0.35,27.73,80.0-90.0
80.0,595.0,-0.5,0.04,9.88,-0.34,0.91,-4.36,27.74,80.0-90.0
80.0,679.0,-0.5,-0.05,9.86,0.07,-0.56,-6.23,27.76,80.0-90.0
80.0,982.0,-0.38,-0.11,9.81,0.35,-0.47,-4.9,27.73,80.0-90.0
80.0,262.0,-0.42,-0.09,9.66,0.16,0.94,-2.76,27.75,80.0-90.0
80.0,1954.0,-0.42,-0.22,9.73,-0.42,0.3,1.45,27.74,80.0-90.0
80.0,2384.0,-0.58,-0.25,9.67,-0.72,0.31,5.08,27.76,80.0-90.0
80.0,1168.0,-0.4,0.22,9.77,-0.28,-0.28,6.59,27.74,80.0-90.0
80.0,1945.0,-0.31,0.03,9.77,-0.71,-0.37,5.48,27.75,80.0-90.0
80.0,1005.0,-0.2,0.28,9.77,-0.39,0.16,2.4,27.74,80.0-90.0
80.0,1404.0,-0.27,0.43,9.75,0.39,0.43,-1.56,27.74,80.0-90.0
80.0,1072.0,-0.45,0.14,9.72,0.13,0.24,-4.97,27.74,80.0-90.0
80.0,2145.0,-0.39,0.07,9.71,0.25,-0.05,-5.83,27.74,80.0-90.0
80.0,1721.0,-0.32,0.01,9.69,0.54,0.05,-4.79,27.74,80.0-90.0
80.0,2001.0,-0.41,-0.31,9.86,-0.2,-0.05,-1.59,27.76,80.0-90.0
80.0,994.0,-0.5,-0.29,9.75,-0.66,0.21,2.69,27.73,80.0-90.0
80.0,1106.0,-0.51,-0.13,9.78,-0.34,0.02,5.13,27.72,80.0-90.0
80.0,1302.0,-0.41,-0.03,9.79,-0.65,-0.42,6.47,27.75,80.0-90.0
80.0,1509.0,-0.3,0.14,9.73,-0.55,-0.11,4.67,27.76,80.0-90.0
80.0,1177.0,-0.24,0.35,9.74,0.16,0.13,0.81,27.76,80.0-90.0
80.0,1175.0,-0.32,0.21,9.78,0.03,0.11,-2.33,27.77,80.0-90.0
80.0,2131.0,-0.47,0.13,9.67,0.27,0.21,-5.51,27.77,80.0-90.0
80.0,690.0,-0.37,0.06,9.76,0.61,-0.11,-6.0,27.74,80.0-90.0
80.0,2193.0,-0.34,-0.13,9.81,0.15,-0.02,-3.85,27.74,80.0-90.0
80.0,1355.0,-0.43,-0.2,9.74,-0.22,0.25,-1.37,27.77,80.0-90.0
80.0,1553.0,-0.46,-0.14,9.74,-0.37,0.25,2.98,27.74,80.0-90.0
80.0,2308.0,-0.49,-0.07,9.76,-0.63,-0.13,5.72,27.74,80.0-90.0
80.0,1486.0,-0.31,0.07,9.78,-0.69,-0.4,5.86,27.77,80.0-90.0
80.0,606.0,-0.21,0.2,9.8,-0.31,-0.11,4.46,27.77,80.0-90.0
80.0,2039.0,-0.25,0.22,9.79,-0.01,0.21,0.56,27.76,80.0-90.0
80.0,821.0,-0.37,0.17,9.74,0.32,0.22,-3.42,27.73,80.0-90.0
80.0,293.0,-0.41,0.08,9.73,0.53,0.1,-5.75,27.75,80.0-90.0
80.0,247.0,-0.42,-0.04,9.75,0.48,-0.1,-5.77,27.74,80.0-90.0
80.0,1008.0,-0.4,-0.13,9.77,0.18,-0.04,-3.6,27.75,80.0-90.0
80.0,2394.0,-0.44,-0.13,9.75,-0.22,0.19,0.32,27.72,80.0-90.0
80.0,789.0,-0.46,-0.08,9.74,-0.55,0.08,3.97,27.72,80.0-90.0
80.0,2116.0,-0.44,-0.03,9.73,-0.81,-0.07,5.45,27.74,80.0-90.0
80.0,1535.0,-0.32,0.13,9.78,-0.68,-0.19,5.54,27.73,80.0-90.0
80.0,830.0,-0.24,0.21,9.79,-0.36,-0.08,3.04,27.74,80.0-90.0
80.0,1293.0,-0.31,0.18,9.74,-0.01,0.25,-0.92,27.75,80.0-90.0
80.0,1616.0,-0.33,0.18,9.76,0.3,0.27,-3.36,27.75,80.0-90.0
80.0,972.0,-0.39,0.03,9.8,0.56,0.04,-5.49,27.74,80.0-90.0
80.0,1646.0,-0.4,-0.1,9.75,0.41,-0.07,-4.96,27.76,80.0-90.0
80.0,1895.0,-0.42,-0.17,9.78,0.12,0.1,-2.14,27.74,80.0-90.0
80.0,965.0,-0.45,-0.17,9.74,-0.1,0.13,0.46,27.72,80.0-90.0
80.0,2112.0,-0.46,-0.05,9.66,-0.49,0.02,3.98,27.75,80.0-90.0
80.0,835.0,-0.4,0.09,9.79,-0.62,-0.18,5.68,27.74,80.0-90.0
80.0,1437.0,-0.29,0.2,9.75,-0.49,-0.1,4.68,27.74,80.0-90.0
80.0,1521.0,-0.26,0.24,9.79,-0.37,-0.02,2.7,27.74,80.0-90.0
80.0,1599.0,-0.29,0.22,9.74,-0.04,0.07,-1.11,27.74,80.0-90.0
80.0,1573.0,-0.4,0.1,9.72,0.3,0.18,-4.27,27.75,80.0-90.0
80.0,934.0,-0.4,-0.06,9.72,0.36,-0.01,-5.42,27.74,80.0-90.0
80.0,834.0,-0.37,-0.11,9.76,0.35,-0.01,-4.76,27.74,80.0-90.0
80.0,581.0,-0.4,-0.15,9.76,0.12,0.05,-1.95,27.74,80.0-90.0
80.0,2282.0,-0.45,-0.15,9.77,-0.19,0.02,1.79,27.74,80.0-90.0
80.0,2397.0,-0.45,-0.04,9.77,-0.48,-0.07,4.67,27.74,80.0-90.0
80.0,1168.0,-0.39,0.08,9.8,-0.51,-0.16,5.4,27.74,80.0-90.0
80.0,1082.0,-0.31,0.2,9.8,-0.45,-0.11,4.38,27.73,80.0-90.0
80.0,1502.0,-0.26,0.24,9.78,-0.23,-0.02,1.31,27.75,80.0-90.0
80.0,935.0,-0.32,0.23,9.76,0.04,0.13,-2.32,27.74,80.0-90.0
