Speed,Voice,Acceleration X,Acceleration Y,Acceleration Z,Gyro X,Gyro Y,Gyro Z,Temperature,Speed_Range
80.0,912.0,0.17,1.46,10.13,1.6,-1.77,1.9,17.75,80.0-90.0
80.0,0.0,-0.71,-2.44,9.88,-0.42,-1.51,-1.29,17.75,80.0-90.0
80.0,666.0,0.48,0.8,10.14,-0.54,0.73,1.24,17.75,80.0-90.0
80.0,263.0,0.44,-1.69,9.6,-2.05,-2.15,-1.03,17.74,80.0-90.0
80.0,1068.0,1.14,0.38,10.78,-1.04,-0.49,0.62,17.75,80.0-90.0
80.0,1076.0,0.61,-3.13,9.93,-4.26,-4.72,-1.55,17.74,80.0-90.0
80.0,1286.0,-1.45,1.85,9.36,0.27,6.71,-2.71,17.74,80.0-90.0
80.0,624.0,0.72,3.9,9.28,6.45,0.78,2.75,17.74,80.0-90.0
80.0,1716.0,-2.64,2.12,8.81,-0.23,8.12,-1.72,17.72,80.0-90.0
80.0,497.0,1.25,3.99,9.24,7.18,2.46,3.5,17.74,80.0-90.0
80.0,0.0,-1.82,-1.76,9.97,-0.51,-6.24,-1.06,17.75,80.0-90.0
80.0,147.0,0.42,-0.5,9.33,-0.69,5.07,1.59,17.76,80.0-90.0
80.0,1392.0,-4.42,-1.82,10.03,-0.97,-8.32,-1.82,17.75,80.0-90.0
80.0,785.0,1.54,-0.66,9.84,-0.1,8.27,-0.11,17.73,80.0-90.0
80.0,1121.0,-0.63,-0.91,13.51,-2.54,-13.66,0.83,17.75,80.0-90.0
80.0,1421.0,-1.81,1.55,3.46,3.5,17.9,-4.37,17.75,80.0-90.0
80.0,974.0,-2.61,1.79,11.38,-0.25,-13.93,2.83,17.72,80.0-90.0
80.0,0.0,1.47,-0.7,6.47,3.06,16.46,-3.53,17.75,80.0-90.0
80.0,0.0,0.33,2.24,11.47,-1.91,-10.3,3.65,17.78,80.0-90.0
80.0,1609.0,2.78,-4.18,8.42,-0.57,0.99,-0.54,17.73,80.0-90.0
80.0,306.0,-3.32,1.7,8.53,-2.6,-2.27,2.33,17.74,80.0-90.0
80.0,1923.0,3.73,-2.25,13.97,1.28,-5.43,0.48,17.73,80.0-90.0
80.0,731.0,-3.38,2.72,1.02,2.79,12.15,-4.13,17.73,80.0-90.0
80.0,0.0,6.69,0.97,14.57,0.86,-7.45,2.56,17.73,80.0-90.0
80.0,481.0,-0.77,-1.02,5.28,4.45,17.27,-4.13,17.74,80.0-90.0
80.0,1680.0,1.17,0.89,11.06,-4.14,-11.28,2.94,17.74,80.0-90.0
80.0,1495.0,2.42,-3.67,12.62,0.42,-1.83,-0.13,17.72,80.0-90.0
80.0,1041.0,-2.84,4.31,0.36,2.73,12.88,-2.98,17.73,80.0-90.0
80.0,0.0,2.95,2.16,13.27,2.73,-14.45,3.47,17.72,80.0-90.0
80.0,0.0,-1.49,-0.53,4.58,5.09,20.05,-3.32,17.73,80.0-90.0
80.0,1739.0,1.54,0.3,10.86,-4.6,-13.23,2.46,17.73,80.0-90.0
80.0,1665.0,2.36,-3.72,13.34,0.65,-1.63,-1.21,17.73,80.0-90.0
80.0,864.0,-4.65,-1.38,10.53,-3.19,5.42,-0.34,17.72,80.0-90.0
80.0,865.0,2.34,2.84,11.32,3.34,-15.34,3.04,17.74,80.0-90.0
80.0,0.0,-0.63,-1.7,7.57,4.22,17.41,-2.95,17.74,80.0-90.0
80.0,752.0,-1.59,0.05,9.57,-4.25,-9.05,2.65,17.75,80.0-90.0
80.0,2239.0,0.2,-4.46,12.93,-4.48,-4.88,-0.62,17.73,80.0-90.0
80.0,442.0,-3.93,-1.87,12.89,-3.68,11.0,-0.22,17.74,80.0-90.0
80.0,260.0,-0.35,5.07,8.21,5.15,-14.15,4.8,17.72,80.0-90.0
80.0,0.0,-0.07,-3.63,13.02,0.45,8.09,-2.33,17.74,80.0-90.0
80.0,944.0,-4.8,4.35,11.64,8.1,-0.29,3.47,17.75,80.0-90.0
80.0,2295.0,0.34,-4.29,7.79,-7.04,-12.3,-1.96,17.76,80.0-90.0
80.0,42.0,-0.19,-1.02,14.79,-2.92,14.19,-3.61,17.74,80.0-90.0
80.0,719.0,-6.11,5.75,9.36,7.79,-7.29,4.48,17.74,80.0-90.0
80.0,0.0,1.15,3.08,4.0,0.57,9.08,-3.49,17.74,80.0-90.0
80.0,718.0,3.94,2.24,13.33,4.25,-2.08,3.5,17.75,80.0-90.0
80.0,1425.0,-1.72,-4.05,5.59,-4.78,-6.91,0.1,17.75,80.0-90.0
80.0,772.0,2.47,1.44,7.85,-1.91,9.55,-2.88,17.72,80.0-90.0
80.0,387.0,2.32,-1.93,13.49,0.93,-3.89,1.06,17.73,80.0-90.0
80.0,0.0,-3.15,1.6,2.02,4.24,13.85,-3.11,17.73,80.0-90.0
80.0,1003.0,4.98,1.28,11.95,-1.23,-8.36,1.12,17.75,80.0-90.0
80.0,2407.0,-0.07,-2.89,12.11,0.09,-2.27,-0.86,17.73,80.0-90.0
80.0,0.0,-4.27,-1.94,9.74,-4.64,3.2,-1.56,17.73,80.0-90.0
80.0,281.0,3.61,3.51,10.8,3.44,-13.02,3.12,17.74,80.0-90.0
80.0,0.0,-2.15,-2.39,11.2,2.73,11.05,-1.26,17.74,80.0-90.0
80.0,2391.0,-3.48,-1.82,8.82,-5.68,-1.54,0.48,17.75,80.0-90.0
80.0,720.0,2.57,-3.87,7.39,-6.12,-11.96,0.69,17.73,80.0-90.0
80.0,774.0,0.33,-1.8,13.22,-4.09,14.07,-3.38,17.72,80.0-90.0
80.0,0.0,-5.73,5.51,10.41,8.02,-4.33,4.26,17.74,80.0-90.0
80.0,0.0,2.46,-3.64,8.22,-4.69,-10.67,-0.24,17.73,80.0-90.0
80.0,2832.0,5.48,2.2,13.77,2.76,-3.43,1.66,17.74,80.0-90.0
80.0,2176.0,-3.12,-3.79,9.73,-2.72,-4.47,-0.76,17.74,80.0-90.0
80.0,1017.0,0.52,2.55,2.15,1.49,10.27,-4.46,17.72,80.0-90.0
80.0,272.0,5.08,2.58,13.89,3.26,-2.61,2.62,17.76,80.0-90.0
80.0,1404.0,-3.89,-0.94,8.34,5.05,14.37,-1.4,17.72,80.0-90.0
80.0,368.0,-1.21,-1.46,8.31,-6.06,-5.22,0.88,17.72,80.0-90.0
80.0,1554.0,5.53,1.26,13.16,1.99,-9.86,2.83,17.74,80.0-90.0
80.0,0.0,-4.54,-0.74,7.78,5.75,15.67,-1.66,17.73,80.0-90.0
80.0,0.0,-5.71,6.27,9.02,8.75,-6.87,4.31,17.72,80.0-90.0
80.0,2928.0,3.67,-3.67,9.05,-4.28,-8.77,-0.65,17.73,80.0-90.0
80.0,1555.0,-1.8,-2.62,14.13,-5.01,12.8,-4.77,17.72,80.0-90.0
80.0,819.0,-4.97,6.19,9.33,8.4,-7.1,3.93,17.72,80.0-90.0
80.0,0.0,1.12,2.18,3.29,0.51,10.24,-4.55,17.74,80.0-90.0
80.0,1237.0,4.44,2.41,13.91,3.49,-2.24,3.09,17.72,80.0-90.0
80.0,2202.0,-3.26,-4.05,8.08,-4.19,-6.01,0.51,17.73,80.0-90.0
80.0,1173.0,1.8,2.19,3.79,0.42,9.93,-3.29,17.75,80.0-90.0
80.0,0.0,4.57,0.75,12.81,2.18,-7.65,2.4,17.73,80.0-90.0
80.0,297.0,-3.77,-0.71,6.47,5.14,14.8,-2.3,17.72,80.0-90.0
80.0,1694.0,0.5,-0.68,8.78,-4.71,-5.88,0.05,17.74,80.0-90.0
80.0,1787.0,4.48,0.99,12.93,3.02,-7.28,0.86,17.73,80.0-90.0
80.0,1173.0,-3.1,-2.26,14.6,-3.93,12.98,-3.78,17.73,80.0-90.0
80.0,0.0,-4.29,6.1,8.31,8.62,-9.05,4.71,17.74,80.0-90.0
80.0,1280.0,2.78,-4.57,11.0,-5.96,-5.69,-0.28,17.73,80.0-90.0
80.0,1989.0,-3.72,-2.42,15.35,-4.45,12.79,-2.48,17.73,80.0-90.0
80.0,1744.0,-3.26,-4.82,6.32,-5.61,-4.82,-0.53,17.74,80.0-90.0
80.0,856.0,2.85,3.8,4.37,0.62,7.98,-3.15,17.75,80.0-90.0
80.0,0.0,1.81,1.6,16.31,5.14,-2.18,3.7,17.73,80.0-90.0
80.0,2119.0,-3.43,-5.31,4.36,-7.09,-7.65,-2.1,17.72,80.0-90.0
80.0,1360.0,4.6,-0.44,9.65,-6.06,-14.34,0.89,17.74,80.0-90.0
80.0,2047.0,2.27,-1.81,14.11,1.57,0.27,-1.44,17.75,80.0-90.0
80.0,859.0,-4.65,3.06,1.46,6.88,16.11,-2.71,17.73,80.0-90.0
80.0,0.0,6.26,0.41,11.89,-3.58,-13.5,2.78,17.72,80.0-90.0
80.0,2927.0,1.72,-3.36,12.38,0.67,7.93,-0.91,17.74,80.0-90.0
80.0,1088.0,-4.78,-2.21,9.6,-5.71,1.28,-0.1,17.71,80.0-90.0
80.0,1157.0,3.94,3.73,9.99,4.74,-12.05,3.3,17.73,80.0-90.0
80.0,0.0,-0.62,-1.86,9.11,3.67,13.84,-2.02,17.72,80.0-90.0
80.0,208.0,-5.68,5.73,9.84,9.13,-4.41,4.36,17.73,80.0-90.0
80.0,2927.0,1.05,-4.63,9.8,-6.51,-9.86,-1.06,17.72,80.0-90.0
80.0,457.0,-1.71,-2.58,15.26,-4.05,12.36,-3.4,17.76,80.0-90.0
80.0,1776.0,-4.63,6.29,8.1,8.16,-8.42,4.48,17.73,80.0-90.0
80.0,0.0,1.83,2.42,5.77,-0.66,8.25,-3.84,17.73,80.0-90.0
80.0,831.0,1.68,3.16,13.53,6.36,-0.43,3.47,17.73,80.0-90.0
80.0,2928.0,-1.45,-4.21,5.21,-5.86,-9.08,0.1,17.73,80.0-90.0
80.0,412.0,3.14,1.13,9.09,-2.39,9.51,-3.67,17.72,80.0-90.0
80.0,1526.0,0.96,-2.88,14.22,-0.68,-3.16,0.37,17.74,80.0-90.0
80.0,0.0,-3.47,2.39,1.34,4.95,14.4,-3.14,17.72,80.0-90.0
80.0,1313.0,5.31,1.76,12.11,-0.31,-8.38,1.99,17.72,80.0-90.0
80.0,1762.0,-0.66,-4.41,13.19,-1.65,-2.59,-0.31,17.72,80.0-90.0
80.0,1335.0,-4.29,-2.68,8.73,-5.57,1.04,-1.11,17.73,80.0-90.0
80.0,62.0,4.22,2.49,11.79,1.7,-14.5,2.97,17.73,80.0-90.0
80.0,252.0,-2.67,-0.81,9.72,5.24,13.99,-1.52,17.73,80.0-90.0
80.0,1709.0,-2.49,-1.01,8.4,-4.52,-3.3,0.42,17.73,80.0-90.0
80.0,1455.0,2.75,-2.19,8.31,-2.6,-9.66,0.69,17.73,80.0-90.0
80.0,1213.0,-1.16,-3.47,13.3,-5.93,13.67,-3.97,17.71,80.0-90.0
80.0,0.0,-4.74,5.67,9.29,6.22,-6.38,3.75,17.71,80.0-90.0
80.0,74.0,3.71,-2.39,8.64,-2.32,-6.53,-0.07,17.73,80.0-90.0
80.0,2042.0,3.68,3.09,12.86,4.01,0.78,1.64,17.73,80.0-90.0
80.0,1922.0,-2.74,-2.38,9.45,-1.17,-6.84,0.45,17.73,80.0-90.0
80.0,1274.0,1.07,0.59,2.87,1.05,10.45,-4.43,17.74,80.0-90.0
80.0,240.0,5.13,1.65,12.74,0.48,-2.9,1.9,17.73,80.0-90.0
80.0,2158.0,-3.23,-2.77,11.04,1.52,8.54,-0.98,17.76,80.0-90.0
80.0,2000.0,-3.83,-2.5,10.28,-5.77,1.68,-0.65,17.74,80.0-90.0
80.0,1399.0,4.27,4.9,8.81,5.53,-12.04,4.11,17.75,80.0-90.0
80.0,0.0,-0.81,-3.05,12.06,1.54,8.73,-1.03,17.73,80.0-90.0
80.0,1593.0,-5.25,5.18,12.22,9.21,-1.57,4.2,17.74,80.0-90.0
80.0,2506.0,1.47,-3.95,5.34,-6.08,-13.06,0.19,17.73,80.0-90.0
80.0,1008.0,3.29,-0.74,10.53,-3.82,12.5,-5.55,17.74,80.0-90.0
80.0,368.0,-4.3,4.97,12.34,9.13,-0.08,3.99,17.73,80.0-90.0
80.0,511.0,-4.03,1.53,1.79,4.36,12.83,-3.2,17.75,80.0-90.0
80.0,2204.0,6.03,1.31,11.39,-2.02,-5.95,1.82,17.74,80.0-90.0
80.0,2444.0,-0.06,-1.69,14.0,0.04,-4.7,1.0,17.74,80.0-90.0
80.0,913.0,-4.18,0.66,3.26,4.3,12.71,-2.88,17.75,80.0-90.0
80.0,19.0,0.53,5.28,8.98,5.98,-12.13,4.16,17.75,80.0-90.0
80.0,1489.0,1.45,-3.26,11.37,-0.81,2.5,-0.82,17.75,80.0-90.0
80.0,1143.0,-4.93,-3.05,12.32,-5.57,8.8,-2.77,17.75,80.0-90.0
80.0,2053.0,-0.6,5.49,9.12,6.31,-12.02,4.39,17.74,80.0-90.0
80.0,0.0,3.33,0.3,7.04,-2.03,10.68,-4.68,17.74,80.0-90.0
80.0,0.0,-0.05,3.65,13.05,6.2,-0.21,3.27,17.76,80.0-90.0
80.0,1821.0,-1.52,-3.31,6.47,-4.16,-9.61,0.66,17.76,80.0-90.0
80.0,107.0,3.43,0.92,6.04,-1.26,11.6,-4.57,17.74,80.0-90.0
80.0,1099.0,2.5,0.01,13.71,1.9,-5.83,1.91,17.73,80.0-90.0
80.0,577.0,-5.2,-0.42,5.65,4.37,12.63,-2.48,17.73,80.0-90.0
80.0,1626.0,1.99,-0.13,9.65,-4.28,-5.88,0.22,17.75,80.0-90.0
80.0,2928.0,3.69,0.43,12.86,2.45,-6.49,1.7,17.76,80.0-90.0
80.0,694.0,-3.34,-2.5,12.89,-4.87,11.31,-3.55,17.75,80.0-90.0
80.0,0.0,-3.15,5.19,9.61,6.74,-9.32,4.36,17.75,80.0-90.0
80.0,1076.0,2.89,-4.06,10.16,-4.48,-4.72,-0.53,17.73,80.0-90.0
80.0,2154.0,-3.3,-1.92,12.83,-4.02,12.79,-3.14,17.73,80.0-90.0
80.0,2157.0,-2.75,-3.16,8.0,-3.07,-7.97,0.65,17.74,80.0-90.0
80.0,0.0,1.97,1.73,4.18,0.39,10.7,-3.94,17.73,80.0-90.0
80.0,0.0,3.56,2.28,13.79,3.15,-2.29,2.62,17.72,80.0-90.0
80.0,2928.0,-3.21,-3.31,7.89,-2.92,-5.52,-0.11,17.75,80.0-90.0
80.0,452.0,-0.13,-0.66,9.25,-4.96,-5.37,0.05,17.75,80.0-90.0
80.0,2013.0,4.56,1.56,12.28,3.76,-6.96,1.88,17.73,80.0-90.0
80.0,0.0,-3.72,-1.54,7.55,2.94,11.9,-2.54,17.72,80.0-90.0
80.0,1376.0,-0.59,-0.41,9.56,-4.31,-2.55,-0.54,17.72,80.0-90.0
80.0,1765.0,2.22,-4.15,8.81,-5.3,-5.6,-0.98,17.72,80.0-90.0
80.0,730.0,-1.32,-0.85,12.28,-2.68,12.76,-3.29,17.72,80.0-90.0
80.0,649.0,-4.32,4.4,11.26,6.65,-8.76,4.68,17.73,80.0-90.0
80.0,65.0,1.76,-4.32,8.85,-4.95,-7.55,-0.21,17.75,80.0-90.0
80.0,1727.0,4.52,1.75,13.55,1.2,-4.87,2.59,17.74,80.0-90.0
80.0,1021.0,-2.68,-2.97,9.37,-1.68,-3.1,-0.04,17.74,80.0-90.0
80.0,1769.0,-0.5,1.79,3.31,1.15,9.83,-3.76,17.74,80.0-90.0
80.0,851.0,5.21,1.85,13.05,1.51,-4.27,2.31,17.73,80.0-90.0
80.0,2366.0,-2.18,-1.81,7.71,2.34,11.69,-2.19,17.71,80.0-90.0
80.0,194.0,-1.34,-0.58,9.87,-3.94,-2.35,-0.04,17.73,80.0-90.0
80.0,1520.0,3.68,1.82,11.94,3.28,-9.54,2.57,17.72,80.0-90.0
80.0,999.0,-2.71,-2.07,7.63,2.39,11.79,-2.54,17.72,80.0-90.0
80.0,878.0,-4.39,5.14,10.17,6.95,-7.89,4.43,17.73,80.0-90.0
80.0,2928.0,2.82,-4.28,9.43,-5.1,-7.97,-0.21,17.73,80.0-90.0
80.0,194.0,-1.95,-1.73,13.22,-4.0,13.66,-3.55,17.72,80.0-90.0
80.0,1663.0,-5.01,5.22,10.34,7.52,-7.75,4.62,17.72,80.0-90.0
80.0,7.0,0.57,1.7,3.3,1.15,10.19,-3.79,17.72,80.0-90.0
80.0,1797.0,4.92,2.27,13.16,2.21,-3.31,2.31,17.72,80.0-90.0
80.0,2922.0,-2.64,-3.02,9.3,-1.67,-4.72,0.34,17.73,80.0-90.0
80.0,1008.0,0.15,1.25,3.97,0.25,10.28,-3.75,17.74,80.0-90.0
80.0,0.0,4.21,1.52,12.17,2.89,-9.34,3.0,17.74,80.0-90.0
80.0,409.0,-2.93,-1.55,7.86,2.91,11.87,-1.91,17.72,80.0-90.0
80.0,2928.0,-1.27,-0.67,9.57,-4.4,-2.34,0.02,17.73,80.0-90.0
80.0,2928.0,4.43,2.23,11.73,3.67,-9.02,2.72,17.73,80.0-90.0
80.0,1197.0,-1.3,-1.34,12.87,-3.97,13.52,-3.88,17.73,80.0-90.0
80.0,0.0,-5.14,5.04,10.94,7.59,-6.41,3.94,17.74,80.0-90.0
80.0,1388.0,2.37,-4.04,8.03,-5.36,-9.11,-0.65,17.74,80.0-90.0
80.0,2928.0,-0.41,-1.44,13.06,-3.68,13.27,-3.82,17.71,80.0-90.0
80.0,2928.0,-2.87,-3.24,9.77,-1.76,-4.29,0.27,17.72,80.0-90.0
80.0,0.0,0.06,1.99,2.67,1.75,10.19,-3.46,17.72,80.0-90.0
80.0,0.0,5.44,1.87,13.52,1.55,-3.97,2.63,17.71,80.0-90.0
80.0,2928.0,-3.1,-3.43,10.11,-2.19,-3.71,0.28,17.72,80.0-90.0
80.0,2928.0,-2.36,-1.52,8.86,-5.44,-2.75,-0.14,17.72,80.0-90.0
80.0,1739.0,5.28,2.82,11.22,3.92,-10.38,2.59,17.72,80.0-90.0
80.0,0.0,-2.77,-1.8,9.31,3.52,13.18,-2.39,17.73,80.0-90.0
80.0,1923.0,-2.54,-1.48,8.74,-5.48,-2.69,-0.85,17.73,80.0-90.0
80.0,2928.0,2.59,-3.99,8.02,-5.77,-10.01,-0.6,17.74,80.0-90.0
80.0,1801.0,-0.27,-2.03,13.44,-4.26,13.18,-3.97,17.74,80.0-90.0
80.0,1250.0,-5.32,5.21,10.47,7.09,-6.78,4.74,17.72,80.0-90.0
80.0,72.0,2.4,-3.68,8.96,-3.85,-7.78,0.36,17.72,80.0-90.0
80.0,2928.0,4.5,2.69,12.68,3.32,-1.36,2.69,17.75,80.0-90.0
80.0,2927.0,-2.24,-2.64,8.68,-1.49,-5.97,0.94,17.72,80.0-90.0
80.0,1889.0,0.8,0.87,4.26,0.09,9.72,-4.07,17.74,80.0-90.0
80.0,107.0,3.84,2.58,12.86,2.94,-1.34,1.67,17.74,80.0-90.0
80.0,1936.0,-3.56,-1.64,8.06,2.62,10.54,-2.4,17.73,80.0-90.0
80.0,1874.0,-1.17,-0.64,9.64,-4.14,-0.38,-1.0,17.71,80.0-90.0
80.0,1345.0,3.99,2.49,11.23,3.81,-10.39,2.97,17.73,80.0-90.0
80.0,976.0,-2.48,-2.75,9.35,0.85,9.09,-1.99,17.74,80.0-90.0
80.0,956.0,-4.49,3.99,12.05,5.41,-6.79,4.04,17.74,80.0-90.0
80.0,2927.0,1.7,-3.47,7.81,-4.08,-7.97,0.07,17.74,80.0-90.0
80.0,1379.0,0.57,-0.73,10.39,-2.8,13.29,-3.5,17.72,80.0-90.0
80.0,1526.0,-3.78,3.68,12.48,5.4,-5.69,3.99,17.7,80.0-90.0
80.0,1648.0,-1.66,-0.06,3.61,1.29,11.02,-3.53,17.75,80.0-90.0
80.0,1909.0,4.86,1.81,11.82,-0.1,-3.98,1.38,17.71,80.0-90.0
80.0,2928.0,-0.74,-0.75,11.28,1.6,-4.85,1.3,17.72,80.0-90.0
80.0,1875.0,-2.14,-0.38,4.04,1.17,11.43,-3.68,17.74,80.0-90.0
80.0,432.0,1.64,3.88,10.19,5.0,-11.9,4.19,17.72,80.0-90.0
80.0,2928.0,-0.04,-3.79,10.75,-1.93,3.16,-1.37,17.69,80.0-90.0
80.0,1804.0,-4.06,-1.63,11.63,-4.23,6.99,-1.87,17.72,80.0-90.0
80.0,2559.0,0.3,4.45,10.09,5.72,-11.29,4.48,17.71,80.0-90.0
80.0,1102.0,2.2,0.49,6.51,-1.44,12.28,-4.46,17.73,80.0-90.0
80.0,950.0,0.31,2.34,13.63,3.75,-2.93,2.72,17.73,80.0-90.0
80.0,2926.0,-2.37,-3.24,7.84,-3.15,-7.84,0.39,17.73,80.0-90.0
80.0,2785.0,2.19,1.15,4.66,-0.11,11.89,-4.63,17.74,80.0-90.0
80.0,1620.0,3.82,1.61,12.48,3.41,-8.12,2.77,17.72,80.0-90.0
80.0,192.0,-4.38,-1.47,7.26,3.66,13.26,-2.36,17.72,80.0-90.0
80.0,2927.0,-0.29,-0.67,8.84,-4.98,-3.8,-0.24,17.73,80.0-90.0
80.0,2697.0,4.95,2.24,12.22,3.35,-9.63,2.95,17.73,80.0-90.0
80.0,1668.0,-1.47,-2.45,12.99,-5.39,13.89,-4.43,17.73,80.0-90.0
80.0,572.0,-5.0,5.69,10.76,7.56,-6.97,4.22,17.72,80.0-90.0
80.0,2931.0,3.81,-3.3,6.85,-4.51,-8.87,-0.1,17.71,80.0-90.0
80.0,2589.0,0.68,-1.14,11.06,-3.79,14.5,-5.06,17.72,80.0-90.0
80.0,2448.0,-3.01,-1.79,12.04,-0.02,-4.87,0.92,17.73,80.0-90.0
80.0,238.0,-2.63,0.45,2.79,3.55,11.83,-3.24,17.72,80.0-90.0
80.0,2061.0,6.36,0.93,10.79,-3.01,-6.58,1.95,17.71,80.0-90.0
80.0,2925.0,0.08,-0.46,14.09,1.98,-2.9,1.37,17.7,80.0-90.0
80.0,2387.0,-6.24,-2.79,13.47,-5.01,9.08,-2.36,17.72,80.0-90.0
80.0,1053.0,-0.86,6.38,7.34,8.84,-12.02,5.13,17.71,80.0-90.0
80.0,1676.0,3.72,-4.23,11.08,-4.45,-2.75,-0.62,17.7,80.0-90.0
80.0,2928.0,-4.69,-3.07,15.16,-5.25,12.47,-4.04,17.7,80.0-90.0
80.0,2544.0,-3.83,-4.74,6.82,-5.28,-6.45,-1.03,17.72,80.0-90.0
80.0,2299.0,2.95,2.75,3.93,0.09,9.66,-4.94,17.71,80.0-90.0
80.0,0.0,2.76,3.07,15.0,6.01,-1.72,3.55,17.71,80.0-90.0
80.0,2690.0,-3.22,-4.84,6.22,-5.47,-7.94,-0.18,17.72,80.0-90.0
80.0,2928.0,2.05,-0.42,8.81,-5.68,-9.34,1.23,17.72,80.0-90.0
80.0,2928.0,3.95,-0.5,14.83,1.41,-6.03,1.37,17.72,80.0-90.0
80.0,1043.0,-5.31,0.4,4.61,6.05,16.27,-2.13,17.71,80.0-90.0
80.0,1280.0,2.1,0.04,9.46,-4.23,-9.43,1.44,17.72,80.0-90.0
80.0,2928.0,2.97,-3.25,11.25,-1.76,-2.17,-0.16,17.71,80.0-90.0
80.0,1892.0,-3.89,-3.75,13.18,-6.02,11.32,-3.4,17.71,80.0-90.0
80.0,2245.0,-2.39,5.98,8.67,6.14,-11.34,4.3,17.72,80.0-90.0
80.0,701.0,2.23,-2.94,11.23,-1.24,-0.61,-0.62,17.72,80.0-90.0
80.0,2928.0,0.95,3.75,12.77,6.28,0.58,2.78,17.7,80.0-90.0
80.0,2927.0,-1.44,-3.01,6.41,-3.58,-9.57,0.45,17.71,80.0-90.0
80.0,1217.0,3.11,0.12,6.36,-2.23,11.12,-4.89,17.72,80.0-90.0
80.0,1107.0,1.12,3.33,12.92,5.14,0.44,2.34,17.72,80.0-90.0
80.0,2614.0,-4.25,-0.5,5.08,3.38,12.76,-2.94,17.72,80.0-90.0
80.0,2928.0,1.48,0.82,10.22,-1.84,-4.78,0.59,17.72,80.0-90.0
80.0,2363.0,2.86,-0.85,13.71,1.26,-8.5,2.27,17.73,80.0-90.0
80.0,1953.0,-3.67,-0.55,5.1,2.94,12.53,-2.75,17.73,80.0-90.0
80.0,833.0,-1.97,4.6,10.33,4.59,-10.25,4.1,17.72,80.0-90.0
80.0,2670.0,1.4,-2.96,10.35,-1.21,-1.69,-0.16,17.72,80.0-90.0
80.0,2661.0,-3.63,-2.16,12.14,-4.75,9.73,-2.36,17.71,80.0-90.0
80.0,2927.0,-2.04,4.93,10.31,5.63,-10.68,4.46,17.72,80.0-90.0
80.0,629.0,2.52,0.63,5.03,-0.97,11.37,-4.52,17.72,80.0-90.0
80.0,1216.0,2.23,2.63,13.35,3.58,-1.74,2.3,17.76,80.0-90.0
80.0,2926.0,-2.85,-3.38,8.29,-2.94,-6.97,0.13,17.72,80.0-90.0
80.0,2373.0,2.06,1.59,3.68,0.07,10.5,-4.65,17.73,80.0-90.0
80.0,2005.0,4.69,1.3,12.84,2.47,-8.56,2.22,17.73,80.0-90.0
80.0,464.0,-4.39,-0.88,7.44,5.0,14.21,-2.17,17.71,80.0-90.0
80.0,2927.0,-0.18,-1.1,8.28,-5.54,-5.48,0.42,17.72,80.0-90.0
80.0,2928.0,5.31,1.24,12.97,2.21,-8.76,2.13,17.74,80.0-90.0
80.0,1596.0,-2.3,-3.29,15.05,-5.79,13.26,-4.01,17.73,80.0-90.0
80.0,785.0,-5.26,6.56,8.69,8.88,-6.61,4.65,17.72,80.0-90.0
80.0,2293.0,3.64,-3.5,9.22,-4.57,-8.27,0.13,17.71,80.0-90.0
80.0,2928.0,-2.36,-3.27,15.21,-5.9,13.99,-4.54,17.73,80.0-90.0
80.0,2546.0,-4.15,-4.63,8.46,-4.26,-5.17,-0.72,17.72,80.0-90.0
80.0,2082.0,-0.68,0.03,8.61,0.99,1.53,-2.49,17.48,80.0-90.0
80.0,609.0,-0.08,2.21,10.08,2.04,-0.06,1.64,17.47,80.0-90.0
80.0,574.0,-0.92,-2.37,10.38,-0.74,-2.21,-2.07,17.47,80.0-90.0
80.0,30.0,-0.21,2.07,10.25,1.64,-0.64,0.91,17.49,80.0-90.0
80.0,0.0,-1.13,-1.98,10.07,0.07,-2.26,-2.2,17.47,80.0-90.0
80.0,304.0,0.25,1.14,10.15,0.54,1.02,0.69,17.48,80.0-90.0
80.0,714.0,-0.14,-1.09,10.61,-0.94,-4.47,2.1,17.49,80.0-90.0
80.0,961.0,-0.17,0.94,9.94,0.22,3.42,1.21,17.46,80.0-90.0
80.0,1444.0,-0.43,-1.18,10.9,-0.92,-4.72,2.57,17.48,80.0-90.0
80.0,1363.0,-0.33,-0.49,7.42,-0.72,5.8,-2.4,17.45,80.0-90.0
80.0,1392.0,1.0,2.83,10.88,1.84,-1.42,2.82,17.46,80.0-90.0
80.0,82.0,0.44,-0.71,7.35,0.19,6.84,-3.49,17.48,80.0-90.0
80.0,0.0,0.67,3.1,10.17,2.04,-0.44,1.5,17.47,80.0-90.0
80.0,1184.0,1.83,-3.29,8.66,-1.36,-5.13,-1.88,17.47,80.0-90.0
80.0,1783.0,-0.69,-0.22,9.66,-3.38,5.57,-3.43,17.47,80.0-90.0
80.0,1393.0,3.15,-3.3,10.08,-0.83,-7.05,-0.05,17.49,80.0-90.0
80.0,1103.0,-1.81,0.28,5.84,-2.81,8.12,-3.44,17.49,80.0-90.0
80.0,693.0,2.19,2.57,12.85,3.31,-1.56,3.59,17.49,80.0-90.0
80.0,0.0,-1.82,-2.59,7.35,-2.22,-6.97,-0.72,17.48,80.0-90.0
80.0,803.0,4.59,3.01,11.75,1.58,-4.87,3.27,17.47,80.0-90.0
80.0,1918.0,0.46,-2.76,7.04,-0.36,-4.24,-0.43,17.47,80.0-90.0
80.0,735.0,0.31,0.55,7.79,-2.25,9.15,-3.84,17.47,80.0-90.0
80.0,1535.0,-0.29,3.05,12.58,4.51,-3.56,2.88,17.48,80.0-90.0
80.0,0.0,-0.88,0.76,3.56,0.89,12.36,-4.81,17.47,80.0-90.0
80.0,611.0,4.73,2.95,11.77,1.69,-5.55,2.17,17.48,80.0-90.0
80.0,2205.0,0.62,-3.47,7.7,-1.1,-3.85,-0.53,17.5,80.0-90.0
80.0,320.0,-2.14,1.3,9.66,-1.49,-1.25,1.72,17.49,80.0-90.0
80.0,681.0,2.91,-0.95,13.73,1.49,-9.22,2.6,17.48,80.0-90.0
80.0,0.0,-2.0,-0.23,3.72,2.05,12.56,-2.82,17.49,80.0-90.0
80.0,938.0,2.63,1.82,10.88,-0.23,-3.95,1.58,17.49,80.0-90.0
80.0,1523.0,-1.23,-3.19,11.71,-0.46,3.69,-1.88,17.48,80.0-90.0
80.0,1168.0,-3.53,-0.59,10.96,-1.79,6.32,-1.15,17.47,80.0-90.0
80.0,260.0,0.76,2.08,11.55,2.65,-13.08,3.32,17.48,80.0-90.0
80.0,0.0,-0.99,-2.96,10.33,0.48,4.91,-1.72,17.49,80.0-90.0
80.0,818.0,-3.25,3.25,12.7,3.86,-4.26,3.2,17.47,80.0-90.0
80.0,2298.0,0.66,-2.51,7.68,-3.09,-8.35,0.54,17.49,80.0-90.0
80.0,1125.0,0.31,-0.26,10.27,-3.1,11.79,-2.82,17.48,80.0-90.0
80.0,0.0,-3.56,3.45,12.39,4.8,-4.56,3.88,17.49,80.0-90.0
80.0,32.0,-1.83,0.42,3.75,0.53,10.39,-3.29,17.48,80.0-90.0
80.0,1981.0,4.93,1.94,12.1,0.74,-3.3,1.18,17.47,80.0-90.0
80.0,1930.0,-1.24,-1.88,10.75,0.16,-4.96,0.59,17.48,80.0-90.0
80.0,713.0,-1.49,0.53,3.66,1.05,10.97,-4.25,17.48,80.0-90.0
80.0,0.0,2.79,2.72,11.28,3.43,-11.76,3.18,17.49,80.0-90.0
80.0,1311.0,-1.37,-2.48,9.51,1.93,8.45,-2.1,17.47,80.0-90.0
80.0,2378.0,-2.94,-0.99,9.35,-3.99,2.32,-0.77,17.47,80.0-90.0
80.0,1721.0,3.57,2.54,12.21,2.74,-13.0,4.11,17.47,80.0-90.0
80.0,229.0,0.44,-1.82,11.18,-4.37,13.56,-3.68,17.46,80.0-90.0
80.0,1131.0,-3.94,4.84,10.98,5.59,-5.23,3.82,17.47,80.0-90.0
80.0,1634.0,2.03,-2.53,7.77,-2.45,-8.97,0.24,17.48,80.0-90.0
80.0,1984.0,0.46,-2.2,10.58,-4.19,13.09,-4.62,17.48,80.0-90.0
80.0,0.0,-1.36,-1.51,10.51,0.94,-7.1,1.44,17.47,80.0-90.0
80.0,2550.0,-1.01,-1.37,4.79,-0.94,9.34,-4.13,17.45,80.0-90.0
80.0,1586.0,3.32,2.15,11.89,1.06,0.29,0.45,17.48,80.0-90.0
80.0,2309.0,-0.55,0.2,10.07,2.86,-6.18,2.42,17.46,80.0-90.0
80.0,656.0,-2.53,-0.06,10.06,-2.57,5.36,-1.06,17.45,80.0-90.0
80.0,0.0,1.25,3.37,12.02,5.0,-10.76,5.07,17.46,80.0-90.0
80.0,1211.0,-0.74,-3.82,9.37,-2.42,-0.0,-0.1,17.46,80.0-90.0
80.0,2178.0,-2.37,-1.08,11.49,-3.59,8.88,-2.08,17.45,80.0-90.0
80.0,1567.0,-0.55,-2.26,9.17,-1.56,-6.85,0.82,17.47,80.0-90.0
80.0,354.0,0.02,0.48,5.09,-0.74,12.3,-4.65,17.47,80.0-90.0
80.0,241.0,2.73,2.7,13.06,2.63,-4.06,1.5,17.47,80.0-90.0
80.0,1399.0,-1.97,-2.54,9.05,-1.21,-6.52,0.02,17.49,80.0-90.0
80.0,1171.0,-0.78,0.15,9.71,-2.84,-1.07,-0.89,17.48,80.0-90.0
80.0,685.0,3.74,0.98,12.62,2.22,-11.15,3.26,17.47,80.0-90.0
80.0,1202.0,-3.02,-2.34,7.72,1.09,10.51,-1.96,17.48,80.0-90.0
80.0,1306.0,-1.61,0.51,9.66,-2.22,1.07,0.27,17.48,80.0-90.0
80.0,1997.0,2.3,-2.64,8.33,-2.14,-5.59,0.79,17.46,80.0-90.0
80.0,641.0,-0.41,-1.17,9.37,-2.68,12.85,-2.91,17.49,80.0-90.0
80.0,0.0,-2.22,2.86,13.23,2.62,-9.0,4.08,17.47,80.0-90.0
80.0,2466.0,0.26,-1.72,7.94,-0.63,-4.72,-0.24,17.47,80.0-90.0
80.0,1476.0,2.34,2.07,10.97,-0.39,-1.02,0.27,17.48,80.0-90.0
80.0,1360.0,0.81,1.44,10.48,4.07,-6.07,1.37,17.47,80.0-90.0
80.0,0.0,-1.91,-1.98,5.9,0.22,11.11,-4.2,17.47,80.0-90.0
80.0,37.0,1.35,1.22,9.85,-2.6,-1.6,0.21,17.48,80.0-90.0
80.0,2927.0,0.69,-4.49,10.32,-4.8,-2.62,-1.21,17.49,80.0-90.0
80.0,880.0,-2.7,-1.3,12.0,-2.9,13.05,-2.63,17.49,80.0-90.0
80.0,0.0,-2.51,4.45,10.47,5.76,-11.6,5.01,17.49,80.0-90.0
80.0,610.0,2.2,-4.54,9.52,-4.2,-3.39,-0.86,17.49,80.0-90.0
80.0,1631.0,2.95,1.85,13.2,1.98,-3.49,2.42,17.48,80.0-90.0
80.0,2069.0,-2.65,-1.98,9.43,-0.68,-6.1,0.77,17.46,80.0-90.0
80.0,2022.0,-0.13,0.53,4.09,0.77,12.07,-4.07,17.46,80.0-90.0
80.0,0.0,4.53,2.11,12.49,0.93,-4.73,1.9,17.48,80.0-90.0
80.0,2263.0,-1.49,-3.04,8.65,0.36,9.37,-2.2,17.48,80.0-90.0
80.0,1596.0,-2.85,-0.27,10.35,-3.39,1.54,-0.72,17.47,80.0-90.0
80.0,1510.0,3.04,3.26,10.83,4.59,-11.67,4.14,17.48,80.0-90.0
80.0,0.0,-1.07,-3.11,9.36,-0.54,7.19,-2.13,17.48,80.0-90.0
80.0,1360.0,-2.92,3.69,12.74,4.79,-5.81,3.49,17.47,80.0-90.0
80.0,2054.0,0.22,-3.14,7.48,-3.3,-8.64,-0.14,17.48,80.0-90.0
80.0,839.0,1.53,-0.66,9.41,-2.92,11.9,-4.52,17.47,80.0-90.0
80.0,0.0,-2.59,3.53,12.53,5.38,-3.42,3.04,17.47,80.0-90.0
80.0,1247.0,-2.38,-0.29,3.79,2.04,11.32,-3.56,17.48,80.0-90.0
80.0,1237.0,4.01,1.44,11.06,-1.0,-3.59,1.06,17.48,80.0-90.0
80.0,2929.0,0.59,-0.95,13.16,1.35,-6.23,2.39,17.48,80.0-90.0
80.0,996.0,-3.64,0.16,3.33,2.71,11.95,-2.8,17.49,80.0-90.0
80.0,411.0,1.13,4.92,10.33,4.71,-12.96,4.62,17.49,80.0-90.0
80.0,1959.0,0.53,-2.62,10.65,0.16,3.57,-1.15,17.47,80.0-90.0
80.0,751.0,-4.4,-2.82,11.42,-5.24,8.1,-3.0,17.48,80.0-90.0
80.0,1326.0,0.21,4.76,10.4,3.34,-13.66,3.43,17.48,80.0-90.0
80.0,0.0,3.24,-1.86,8.68,-4.71,10.6,-5.97,17.49,80.0-90.0
80.0,1182.0,-1.37,4.33,11.37,6.39,2.53,1.3,17.46,80.0-90.0
80.0,2312.0,-0.4,-1.66,7.11,-1.17,-11.69,1.29,17.49,80.0-90.0
80.0,691.0,3.1,-2.33,7.28,-4.09,11.67,-4.62,17.48,80.0-90.0
80.0,285.0,1.39,-0.71,14.32,1.14,-9.64,4.13,17.47,80.0-90.0
80.0,483.0,-4.61,-1.45,5.61,1.49,9.28,-1.37,17.49,80.0-90.0
80.0,1386.0,1.95,0.98,10.4,-0.86,0.4,0.69,17.49,80.0-90.0
80.0,1941.0,1.74,0.17,14.45,1.46,-10.5,4.37,17.48,80.0-90.0
80.0,0.0,-2.89,-2.59,9.38,-4.43,12.12,-3.91,17.48,80.0-90.0
80.0,673.0,-0.52,3.98,10.86,2.51,-8.56,2.65,17.48,80.0-90.0
80.0,1998.0,2.15,-0.57,9.07,1.0,-4.41,0.11,17.49,80.0-90.0
80.0,1343.0,-1.61,-2.16,7.55,-3.5,12.4,-5.15,17.48,80.0-90.0
80.0,176.0,-0.59,1.23,10.09,2.94,-11.02,3.18,17.49,80.0-90.0
80.0,1714.0,0.71,-3.88,7.49,-3.18,6.5,-3.47,17.47,80.0-90.0
80.0,430.0,-1.13,1.15,11.06,-0.14,6.77,-0.59,17.49,80.0-90.0
80.0,1874.0,0.07,1.99,11.49,4.1,-13.03,5.04,17.46,80.0-90.0
80.0,0.0,0.12,-0.79,7.98,-2.48,10.44,-3.11,17.47,80.0-90.0
80.0,1214.0,0.82,2.39,13.88,1.83,-8.42,3.99,17.48,80.0-90.0
80.0,1758.0,-1.58,-1.36,8.21,1.28,-2.9,0.89,17.5,80.0-90.0
80.0,1441.0,-0.58,-0.84,6.17,-1.65,10.77,-4.02,17.47,80.0-90.0
80.0,534.0,2.3,2.33,9.78,5.41,-10.27,3.88,17.49,80.0-90.0
80.0,1744.0,0.13,-3.91,8.42,-3.32,7.84,-3.49,17.48,80.0-90.0
80.0,1008.0,-3.03,1.49,11.8,0.36,6.79,-1.43,17.49,80.0-90.0
80.0,2928.0,-0.32,2.22,10.76,4.18,-12.89,4.46,17.47,80.0-90.0
80.0,33.0,0.81,-0.12,7.11,-2.39,9.7,-3.75,17.49,80.0-90.0
80.0,623.0,1.8,2.11,14.39,0.38,-8.9,3.17,17.47,80.0-90.0
80.0,1767.0,-2.32,-1.59,9.19,1.08,-1.77,0.27,17.47,80.0-90.0
80.0,1788.0,-1.87,-1.19,5.94,-2.26,10.27,-3.84,17.47,80.0-90.0
80.0,510.0,3.31,2.11,8.62,5.26,-11.72,3.88,17.47,80.0-90.0
80.0,2160.0,1.18,-4.68,8.44,-3.56,8.54,-3.46,17.48,80.0-90.0
80.0,1456.0,-3.2,1.72,11.37,1.32,6.26,-0.34,17.47,80.0-90.0
80.0,2928.0,0.98,3.04,9.26,5.82,-12.5,4.84,17.48,80.0-90.0
80.0,955.0,1.55,1.28,8.12,-0.72,10.59,-3.07,17.48,80.0-90.0
80.0,626.0,-0.38,1.67,15.08,1.76,-8.3,3.7,17.49,80.0-90.0
80.0,1856.0,-2.58,-2.55,7.28,-2.49,-4.12,-0.5,17.49,80.0-90.0
80.0,1052.0,1.53,1.52,6.1,-0.42,10.62,-4.16,17.47,80.0-90.0
80.0,1470.0,3.14,2.33,10.4,5.23,-5.34,1.67,17.47,80.0-90.0
80.0,0.0,-3.16,-3.44,7.31,-0.6,12.5,-4.28,17.49,80.0-90.0
80.0,2296.0,0.08,0.68,9.11,-3.21,-3.42,-0.56,17.49,80.0-90.0
80.0,1363.0,4.85,2.81,10.05,5.95,-8.55,2.89,17.49,80.0-90.0
80.0,1010.0,-0.96,-0.0,13.15,-0.39,13.63,-2.46,17.46,80.0-90.0
80.0,0.0,-4.81,3.65,11.78,6.42,-9.54,5.84,17.49,80.0-90.0
80.0,2928.0,1.35,-4.21,7.87,-5.45,-6.01,-0.11,17.48,80.0-90.0
80.0,2128.0,0.47,0.41,12.11,-0.88,12.89,-2.42,17.5,80.0-90.0
80.0,1974.0,-2.29,-1.13,10.45,1.22,-2.2,0.79,17.47,80.0-90.0
80.0,289.0,-2.77,0.6,4.13,0.41,11.08,-4.07,17.48,80.0-90.0
80.0,531.0,5.34,1.85,12.07,-0.74,-7.11,0.77,17.47,80.0-90.0
80.0,2178.0,-0.71,-1.18,10.29,1.28,-2.41,-0.02,17.46,80.0-90.0
80.0,894.0,-3.27,-0.02,10.07,-2.29,2.78,-1.44,17.49,80.0-90.0
80.0,1794.0,2.93,2.47,11.08,3.87,-12.18,3.72,17.47,80.0-90.0
80.0,576.0,-0.85,-3.23,8.94,-0.34,8.18,-2.22,17.47,80.0-90.0
80.0,2288.0,-2.81,0.0,9.9,-2.03,3.14,-0.19,17.47,80.0-90.0
80.0,2928.0,0.71,-3.04,7.85,-3.21,-7.61,0.36,17.47,80.0-90.0
80.0,1349.0,0.89,-0.45,10.01,-2.11,12.91,-3.29,17.46,80.0-90.0
80.0,405.0,-3.23,3.18,12.82,3.93,-6.5,3.65,17.47,80.0-90.0
80.0,2295.0,0.33,-2.7,7.9,-2.46,-7.03,-0.42,17.46,80.0-90.0
80.0,2097.0,3.96,1.93,11.18,-0.02,-2.43,0.72,17.48,80.0-90.0
80.0,2929.0,0.15,0.01,10.39,2.33,-4.97,1.14,17.47,80.0-90.0
80.0,272.0,-1.9,-0.82,4.89,0.44,11.28,-3.72,17.46,80.0-90.0
80.0,1127.0,3.43,1.62,10.72,-1.47,-3.14,1.15,17.45,80.0-90.0
80.0,2032.0,-0.12,-3.9,10.29,-2.43,3.08,-1.64,17.48,80.0-90.0
80.0,577.0,-3.48,-0.8,11.68,-2.55,7.58,-1.64,17.48,80.0-90.0
80.0,1798.0,0.37,3.41,10.27,5.21,-11.54,4.23,17.47,80.0-90.0
80.0,0.0,0.5,-3.86,10.12,-2.48,2.07,-1.82,17.49,80.0-90.0
80.0,1808.0,-0.77,2.18,14.01,2.92,-4.33,2.88,17.47,80.0-90.0
80.0,2928.0,-1.59,-2.54,7.47,-2.05,-6.44,0.05,17.47,80.0-90.0
80.0,1690.0,1.15,0.63,7.15,-1.06,11.17,-3.4,17.47,80.0-90.0
80.0,47.0,-0.03,1.92,14.12,2.1,-5.22,3.29,17.47,80.0-90.0
80.0,127.0,-2.4,-1.92,5.76,0.04,11.26,-3.07,17.46,80.0-90.0
80.0,2201.0,2.06,1.66,10.32,-1.76,-3.1,1.01,17.48,80.0-90.0
80.0,2928.0,2.07,1.13,10.66,3.87,-6.12,2.19,17.47,80.0-90.0
80.0,1088.0,-1.64,-1.92,5.75,0.07,10.86,-3.4,17.45,80.0-90.0
80.0,0.0,-0.9,3.57,10.49,5.21,-11.49,4.14,17.48,80.0-90.0
80.0,2181.0,0.41,-4.35,10.48,-3.65,0.05,-2.14,17.44,80.0-90.0
80.0,1810.0,-2.95,-0.85,12.1,-1.96,9.41,-2.28,17.47,80.0-90.0
80.0,1681.0,-1.05,3.7,10.1,5.03,-11.52,4.37,17.48,80.0-90.0
80.0,975.0,1.34,0.54,7.26,-1.79,9.19,-3.52,17.45,80.0-90.0
80.0,1282.0,0.28,2.21,13.61,2.91,-3.59,3.3,17.49,80.0-90.0
80.0,1808.0,-1.56,-2.23,7.22,-2.29,-7.72,0.8,17.49,80.0-90.0
80.0,1941.0,1.55,0.08,7.51,-1.85,11.32,-3.61,17.47,80.0-90.0
80.0,781.0,1.7,0.19,11.79,2.85,-6.64,2.43,17.49,80.0-90.0
80.0,0.0,-2.63,-1.55,5.2,0.57,10.82,-3.5,17.48,80.0-90.0
80.0,1893.0,2.07,1.56,10.67,-1.35,-1.69,0.01,17.47,80.0-90.0
80.0,1941.0,1.98,0.92,11.45,3.63,-6.87,1.85,17.48,80.0-90.0
80.0,1285.0,-2.93,-0.66,11.57,-2.43,10.31,-2.75,17.47,80.0-90.0
80.0,313.0,-1.52,3.44,11.27,4.72,-11.02,4.28,17.49,80.0-90.0
80.0,777.0,0.38,-3.82,9.73,-3.01,-1.05,-1.03,17.49,80.0-90.0
80.0,2126.0,-2.12,-0.67,11.44,-2.37,10.07,-1.93,17.49,80.0-90.0
80.0,2927.0,-1.27,-1.78,8.57,-0.95,-5.68,0.8,17.49,80.0-90.0
80.0,1053.0,0.1,0.26,5.77,-0.86,11.08,-3.78,17.47,80.0-90.0
80.0,1010.0,2.36,2.13,12.8,1.51,-3.54,2.19,17.49,80.0-90.0
80.0,2263.0,-1.23,-1.7,8.9,-0.2,-5.71,0.5,17.49,80.0-90.0
80.0,1915.0,-0.91,0.99,9.58,-1.53,1.54,-0.5,17.47,80.0-90.0
80.0,1970.0,3.1,1.54,11.75,3.84,-10.35,2.94,17.48,80.0-90.0
80.0,829.0,-1.87,-3.02,7.58,-0.46,9.46,-2.92,17.46,80.0-90.0
80.0,1810.0,-1.25,0.78,10.47,-1.84,2.12,-0.21,17.47,80.0-90.0
80.0,2922.0,0.52,-3.6,8.23,-3.58,-4.12,-0.56,17.45,80.0-90.0
80.0,2111.0,-0.16,0.3,10.44,-1.73,11.05,-2.65,17.5,80.0-90.0
80.0,775.0,-2.75,2.75,13.39,3.98,-7.81,4.26,17.49,80.0-90.0
80.0,2264.0,-0.37,-3.44,7.72,-3.62,-5.84,-0.6,17.48,80.0-90.0
80.0,2246.0,4.15,1.82,11.61,-0.28,-5.01,1.41,17.48,80.0-90.0
80.0,2927.0,-0.35,-0.98,10.57,1.08,-4.24,0.85,17.48,80.0-90.0
80.0,1296.0,-2.32,0.25,3.88,0.82,10.89,-3.9,17.48,80.0-90.0
80.0,1250.0,4.99,1.63,12.04,-0.68,-5.16,1.34,17.49,80.0-90.0
80.0,2928.0,-0.37,-3.49,9.86,-0.31,7.08,-2.31,17.48,80.0-90.0
80.0,2263.0,-3.67,-0.88,10.38,-3.09,4.62,-1.14,17.48,80.0-90.0
80.0,2928.0,2.67,3.37,10.34,4.59,-13.23,4.39,17.49,80.0-90.0
80.0,0.0,-0.17,-3.62,10.25,-0.63,5.94,-1.79,17.48,80.0-90.0
80.0,2214.0,-3.16,3.28,13.03,5.05,-4.49,3.93,17.48,80.0-90.0
80.0,2309.0,0.21,-3.41,7.19,-4.4,-8.94,0.07,17.48,80.0-90.0
80.0,1314.0,1.74,0.71,8.73,-1.3,13.23,-3.81,17.48,80.0-90.0
80.0,1200.0,-2.6,2.79,14.02,4.71,-5.43,3.67,17.49,80.0-90.0
80.0,583.0,-3.42,-0.08,4.06,2.39,12.05,-3.49,17.47,80.0-90.0
80.0,2704.0,4.5,1.18,10.8,-2.54,-6.24,0.79,17.47,80.0-90.0
80.0,2472.0,1.39,-0.1,12.28,2.12,-3.54,0.91,17.47,80.0-90.0
80.0,2352.0,-4.12,-0.38,4.4,2.51,12.45,-3.52,17.49,80.0-90.0
80.0,781.0,-0.11,4.83,8.57,6.53,-11.8,4.45,17.49,80.0-90.0
80.0,2928.0,2.41,-4.69,11.03,-3.77,0.29,-1.61,17.48,80.0-90.0
80.0,1620.0,-4.46,-1.54,12.55,-3.03,10.21,-2.1,17.49,80.0-90.0
80.0,2529.0,-1.11,4.63,9.15,6.62,-12.34,4.94,17.48,80.0-90.0
80.0,486.0,2.54,1.36,6.63,-0.59,10.24,-3.72,17.48,80.0-90.0
80.0,710.0,0.51,2.36,13.92,3.84,-3.39,3.15,17.48,80.0-90.0
80.0,2607.0,-2.1,-3.06,6.87,-2.95,-7.11,0.21,17.49,80.0-90.0
80.0,1891.0,2.29,1.48,6.77,-0.72,10.59,-3.76,17.47,80.0-90.0
80.0,2009.0,2.6,0.78,12.46,3.38,-4.43,1.95,17.49,80.0-90.0
80.0,511.0,-3.82,-1.02,4.91,2.42,12.8,-2.72,17.49,80.0-90.0
80.0,2928.0,2.68,0.35,9.83,-4.54,-6.1,0.69,17.48,80.0-90.0
80.0,1873.0,3.35,1.43,12.19,4.14,-4.38,1.84,17.51,80.0-90.0
80.0,2438.0,-4.13,-1.36,13.34,-3.03,12.33,-2.86,17.51,80.0-90.0
80.0,769.0,-2.77,5.45,8.64,7.9,-10.77,4.89,17.48,80.0-90.0
80.0,1104.0,2.81,-5.23,10.99,-5.47,-4.14,-1.15,17.48,80.0-90.0
80.0,2927.0,-3.8,-1.97,13.55,-3.21,12.53,-3.12,17.47,80.0-90.0
80.0,2927.0,-3.21,-3.78,7.0,-3.77,-6.81,-0.3,17.47,80.0-90.0
80.0,1954.0,2.63,2.33,4.97,0.45,10.48,-3.94,17.48,80.0-90.0
80.0,389.0,2.11,2.27,14.45,3.82,-2.09,2.8,17.48,80.0-90.0
80.0,2927.0,-2.84,-3.55,6.7,-3.74,-7.63,0.1,17.47,80.0-90.0
80.0,2083.0,1.62,0.12,10.05,-4.31,-7.52,0.65,17.48,80.0-90.0
80.0,2928.0,3.16,-0.35,13.51,2.09,-6.42,1.95,17.46,80.0-90.0
80.0,851.0,-3.92,0.07,4.1,3.09,13.43,-3.06,17.49,80.0-90.0
80.0,941.0,2.55,1.09,10.76,-2.07,-5.31,0.22,17.47,80.0-90.0
80.0,2672.0,1.17,-3.26,11.28,-0.75,1.56,-1.53,17.47,80.0-90.0
80.0,2096.0,-4.29,-2.32,10.53,-4.42,7.81,-2.42,17.48,80.0-90.0
80.0,1692.0,0.97,4.24,10.69,3.69,-13.11,4.31,17.46,80.0-90.0
80.0,1683.0,0.09,-2.9,11.12,-0.16,2.04,-0.66,17.48,80.0-90.0
80.0,2480.0,-0.81,3.46,12.4,5.17,-0.31,2.77,17.49,80.0-90.0
80.0,2928.0,-0.89,-1.98,6.56,-2.45,-10.01,1.01,17.5,80.0-90.0
80.0,2789.0,2.92,-0.51,7.4,-2.52,11.41,-4.51,17.5,80.0-90.0
80.0,695.0,0.04,3.12,12.81,4.27,-1.13,2.49,17.47,80.0-90.0
80.0,2865.0,-4.3,-1.51,5.93,1.7,11.05,-2.86,17.49,80.0-90.0
80.0,2386.0,1.62,0.4,9.85,-2.71,-1.3,-0.31,17.47,80.0-90.0
80.0,2470.0,3.0,1.42,12.34,3.34,-8.22,3.0,17.48,80.0-90.0
80.0,963.0,-3.85,-2.34,7.79,2.01,9.96,-2.19,17.48,80.0-90.0
80.0,789.0,-3.79,4.8,10.94,6.16,-9.06,4.54,17.49,80.0-90.0
80.0,2928.0,2.98,-3.56,8.62,-3.67,-7.1,0.02,17.47,80.0-90.0
80.0,2000.0,-1.25,-1.57,11.75,-3.65,14.31,-3.65,17.47,80.0-90.0
80.0,2591.0,-4.72,4.72,11.37,6.51,-8.16,4.52,17.47,80.0-90.0
80.0,872.0,-0.19,0.76,3.02,1.43,10.42,-3.84,17.48,80.0-90.0
80.0,2450.0,5.8,1.35,12.58,-0.77,-3.48,1.27,17.51,80.0-90.0
80.0,2750.0,-2.65,-0.99,11.75,0.85,-2.96,0.5,17.49,80.0-90.0
80.0,1901.0,-2.71,0.94,2.62,3.49,12.02,-3.78,17.45,80.0-90.0
80.0,717.0,3.32,5.68,8.48,7.17,-11.63,4.14,17.47,80.0-90.0
80.0,1925.0,0.73,-4.3,12.29,-1.21,4.23,-1.18,17.47,80.0-90.0
80.0,2928.0,-5.94,-3.09,10.96,-5.79,7.11,-2.28,17.48,80.0-90.0
80.0,2927.0,2.64,6.31,7.98,7.29,-14.57,4.69,17.48,80.0-90.0
80.0,887.0,4.52,0.59,9.04,-1.55,14.08,-5.29,17.48,80.0-90.0
80.0,458.0,-3.02,4.3,12.99,7.88,-1.57,3.72,17.47,80.0-90.0
80.0,2928.0,-0.61,-4.16,5.49,-5.85,-12.48,0.04,17.49,80.0-90.0
80.0,2398.0,3.9,-0.73,9.63,-3.3,12.3,-4.98,17.47,80.0-90.0
80.0,1614.0,0.41,-2.39,14.16,0.35,-4.56,1.59,17.48,80.0-90.0
80.0,1410.0,-4.17,0.72,2.41,2.68,12.98,-2.62,17.46,80.0-90.0
80.0,1867.0,4.01,1.61,12.2,-0.77,-3.83,1.26,17.46,80.0-90.0
80.0,2928.0,-0.01,-1.35,13.53,1.2,-5.86,2.3,17.48,80.0-90.0
80.0,1773.0,-4.62,-2.3,10.87,-5.38,6.26,-2.54,17.47,80.0-90.0
80.0,1304.0,0.91,5.03,10.17,5.21,-10.77,3.72,17.48,80.0-90.0
80.0,1858.0,0.59,-3.22,10.61,-0.86,0.38,-0.94,17.48,80.0-90.0
