Speed,Voice,Acceleration X,Acceleration Y,Acceleration Z,Gyro X,Gyro Y,Gyro Z,Temperature,Speed_Range
80.0,253.0,-0.58,2.09,9.99,1.84,2.62,-1.23,18.23,80.0-90.0
80.0,1262.0,-0.95,-1.89,10.26,-2.07,0.67,-2.08,18.22,80.0-90.0
80.0,1371.0,-1.14,2.12,9.1,1.55,4.39,-0.62,18.2,80.0-90.0
80.0,2414.0,-0.22,1.52,7.82,3.26,1.4,-0.6,18.21,80.0-90.0
80.0,1863.0,0.28,2.26,8.92,2.21,1.95,-2.27,18.22,80.0-90.0
80.0,1890.0,-0.04,-0.49,9.11,-0.07,2.3,-2.43,18.2,80.0-90.0
80.0,1998.0,-1.65,2.4,9.81,2.65,4.88,-1.75,18.22,80.0-90.0
80.0,2343.0,0.1,1.77,9.83,4.92,-1.69,1.88,18.21,80.0-90.0
80.0,2376.0,-0.21,-0.43,8.69,0.42,-0.31,-1.23,18.2,80.0-90.0
80.0,2405.0,-0.01,2.94,8.72,5.79,0.63,2.49,18.21,80.0-90.0
80.0,2736.0,0.54,-0.1,9.09,0.59,-0.96,-1.24,18.2,80.0-90.0
80.0,1855.0,-1.15,-0.69,11.89,-1.53,-5.71,3.46,18.2,80.0-90.0
80.0,1786.0,1.77,-5.61,10.79,-5.19,-2.03,-1.72,18.23,80.0-90.0
80.0,1450.0,-1.54,-0.57,11.78,-1.13,-4.53,2.53,18.21,80.0-90.0
80.0,1847.0,2.78,-5.97,10.6,-5.3,-1.63,-2.74,18.21,80.0-90.0
80.0,2419.0,-4.41,2.87,10.62,-1.21,4.17,-1.24,18.24,80.0-90.0
80.0,2176.0,1.55,3.45,8.43,8.04,5.13,2.17,18.22,80.0-90.0
80.0,2661.0,-5.98,3.59,9.53,-0.74,6.27,-1.05,18.2,80.0-90.0
80.0,2330.0,2.8,3.34,10.0,8.31,4.39,3.59,18.18,80.0-90.0
80.0,1019.0,-2.23,-2.55,10.15,-3.73,-10.68,-1.29,18.22,80.0-90.0
80.0,1354.0,1.48,-0.35,8.59,0.01,12.05,1.09,18.22,80.0-90.0
80.0,2459.0,-6.71,-2.68,8.08,-4.48,-8.91,-1.69,18.19,80.0-90.0
80.0,1959.0,4.48,-0.36,12.42,0.65,12.47,-0.22,18.21,80.0-90.0
80.0,2928.0,-4.21,2.3,9.13,1.8,-13.47,2.05,18.22,80.0-90.0
80.0,2350.0,3.09,-2.04,9.49,0.86,12.69,-4.2,18.23,80.0-90.0
80.0,1853.0,-2.93,2.72,6.3,5.78,-3.97,3.12,18.2,80.0-90.0
80.0,679.0,3.86,-4.26,11.23,-3.65,-2.17,-3.2,18.19,80.0-90.0
80.0,2758.0,-2.77,2.1,7.01,-0.51,6.48,1.58,18.19,80.0-90.0
80.0,1891.0,3.07,-0.22,13.69,1.34,-12.99,1.01,18.19,80.0-90.0
80.0,2333.0,0.38,1.35,12.01,1.7,16.28,0.1,18.22,80.0-90.0
80.0,2418.0,-2.56,3.7,8.17,4.5,-14.62,3.79,18.22,80.0-90.0
80.0,1461.0,3.37,-4.65,10.95,-1.78,8.54,-3.68,18.22,80.0-90.0
80.0,1069.0,-2.42,1.59,7.43,-3.01,-3.01,2.02,18.19,80.0-90.0
80.0,2480.0,-0.23,-5.53,11.81,-7.7,-8.38,-3.18,18.19,80.0-90.0
80.0,1327.0,-1.04,1.32,10.9,1.76,15.67,-0.24,18.2,80.0-90.0
80.0,2809.0,-1.78,4.23,8.81,5.23,-16.37,3.61,18.22,80.0-90.0
80.0,2201.0,3.22,-4.36,10.28,-1.3,11.84,-3.61,18.2,80.0-90.0
80.0,1056.0,-3.67,3.73,7.62,8.46,-4.58,5.49,18.2,80.0-90.0
80.0,2502.0,-0.21,-5.96,11.72,-8.69,-7.31,-2.98,18.21,80.0-90.0
80.0,1711.0,-1.47,1.21,12.16,0.57,14.22,-0.11,18.21,80.0-90.0
80.0,2640.0,-2.01,4.17,7.85,6.17,-15.15,4.05,18.22,80.0-90.0
80.0,1759.0,1.15,3.38,13.52,1.14,10.77,-1.4,18.21,80.0-90.0
80.0,1122.0,-2.8,2.54,10.69,8.23,-3.48,5.13,18.2,80.0-90.0
80.0,1823.0,-3.19,-5.96,10.04,-9.45,-7.9,-3.11,18.19,80.0-90.0
80.0,2258.0,-0.66,1.74,14.92,1.55,15.17,-0.48,18.2,80.0-90.0
80.0,2346.0,-2.48,-5.39,3.94,-4.77,2.36,-4.43,18.2,80.0-90.0
80.0,2559.0,0.13,5.12,9.68,1.31,8.18,-1.05,18.17,80.0-90.0
80.0,900.0,-0.43,1.47,15.22,7.5,-2.44,5.74,18.2,80.0-90.0
80.0,1617.0,-5.69,-5.55,5.99,-10.08,-6.99,-3.72,18.2,80.0-90.0
80.0,2928.0,7.4,-0.1,16.31,-3.48,-18.28,4.49,18.19,80.0-90.0
80.0,1681.0,0.24,-4.87,6.45,-1.41,7.4,-4.68,18.21,80.0-90.0
80.0,2413.0,-1.78,5.67,2.63,2.5,8.8,-1.67,18.22,80.0-90.0
80.0,1232.0,4.22,0.18,18.19,2.48,-9.26,4.72,18.2,80.0-90.0
80.0,530.0,-0.96,0.72,3.93,2.86,19.52,-3.21,18.2,80.0-90.0
80.0,2741.0,3.65,0.87,10.67,-4.49,-18.3,3.53,18.21,80.0-90.0
80.0,1776.0,4.25,-3.84,11.27,0.88,2.75,-3.23,18.21,80.0-90.0
80.0,2270.0,-3.44,4.27,-0.05,3.2,14.69,-2.36,18.23,80.0-90.0
80.0,1531.0,1.91,2.75,9.65,4.82,-15.7,2.77,18.2,80.0-90.0
80.0,0.0,1.84,-2.6,8.53,0.53,15.32,-2.74,18.21,80.0-90.0
80.0,2826.0,-0.74,0.57,8.06,-4.09,-8.96,2.3,18.2,80.0-90.0
80.0,2199.0,4.54,-0.31,12.26,3.03,-7.39,-0.63,18.21,80.0-90.0
80.0,2928.0,-1.59,0.46,15.25,-0.14,11.76,-0.8,18.21,80.0-90.0
80.0,641.0,-3.62,4.47,6.67,7.85,-12.48,4.45,18.21,80.0-90.0
80.0,1535.0,2.13,-5.45,12.91,-5.91,2.12,-3.03,18.2,80.0-90.0
80.0,2769.0,-3.77,0.02,11.45,-1.0,6.58,0.27,18.2,80.0-90.0
80.0,2054.0,-4.73,-5.06,5.31,-8.81,-4.76,-3.52,18.19,80.0-90.0
80.0,1415.0,1.38,3.42,14.54,1.87,11.58,-0.62,18.19,80.0-90.0
80.0,977.0,-4.83,2.42,12.1,8.17,-4.59,6.07,18.18,80.0-90.0
80.0,0.0,-4.03,-5.74,8.55,-10.7,-6.91,-2.86,18.2,80.0-90.0
80.0,2657.0,7.41,-0.39,17.27,-1.73,-15.23,4.42,18.19,80.0-90.0
80.0,1654.0,-1.97,-4.68,5.42,-2.84,6.26,-5.01,18.18,80.0-90.0
80.0,2295.0,-0.35,5.98,3.32,3.23,8.93,-1.56,18.21,80.0-90.0
80.0,0.0,3.39,0.23,18.46,2.68,-8.47,4.72,18.19,80.0-90.0
80.0,1563.0,-1.33,1.05,3.79,4.07,20.14,-2.36,18.18,80.0-90.0
80.0,2928.0,4.44,0.17,9.34,-6.37,-19.85,2.89,18.19,80.0-90.0
80.0,1925.0,3.71,-2.7,12.5,1.69,2.79,-3.23,18.19,80.0-90.0
80.0,1590.0,-3.63,3.51,0.78,4.48,17.17,-2.17,18.19,80.0-90.0
80.0,0.0,0.18,4.01,6.82,6.14,-16.36,3.47,18.2,80.0-90.0
80.0,1363.0,4.81,-4.24,11.07,-2.02,11.49,-2.8,18.19,80.0-90.0
80.0,2281.0,-4.32,0.28,8.93,-2.23,-2.29,1.05,18.2,80.0-90.0
80.0,2635.0,3.54,1.14,10.38,4.11,-12.1,1.3,18.21,80.0-90.0
80.0,2497.0,0.27,1.48,15.59,0.76,10.97,-0.42,18.21,80.0-90.0
80.0,0.0,-4.56,3.27,9.49,7.04,-8.38,5.01,18.21,80.0-90.0
80.0,1566.0,-1.88,-4.49,11.31,-6.22,0.11,-2.57,18.2,80.0-90.0
80.0,2001.0,-1.93,0.73,13.61,-0.36,7.35,0.01,18.2,80.0-90.0
80.0,1714.0,-1.87,-3.36,5.17,-4.0,-0.2,-3.2,18.2,80.0-90.0
80.0,1957.0,0.42,2.17,9.32,-0.68,8.35,-2.04,18.2,80.0-90.0
80.0,0.0,-1.03,2.08,14.55,4.21,-4.52,3.85,18.2,80.0-90.0
80.0,1799.0,-2.41,-3.26,6.69,-4.03,-3.27,-1.99,18.19,80.0-90.0
80.0,1809.0,4.95,1.95,10.52,0.09,-7.57,2.74,18.19,80.0-90.0
80.0,2486.0,2.14,-1.4,9.3,1.38,-2.73,-1.03,18.19,80.0-90.0
80.0,1335.0,-0.86,1.1,3.84,1.6,12.05,-2.97,18.2,80.0-90.0
80.0,0.0,5.31,0.98,10.69,-2.07,-9.22,2.66,18.19,80.0-90.0
80.0,2635.0,0.85,-4.4,11.23,-3.96,3.17,-2.05,18.19,80.0-90.0
80.0,1392.0,-2.98,-0.35,11.19,-1.82,5.78,-0.05,18.19,80.0-90.0
80.0,2452.0,1.63,4.15,7.08,7.09,-12.59,3.47,18.19,80.0-90.0
80.0,0.0,2.88,-4.65,12.44,-3.71,4.96,-1.64,18.2,80.0-90.0
80.0,1397.0,-4.29,1.88,15.27,6.75,-3.85,5.29,18.19,80.0-90.0
80.0,1935.0,-2.81,-5.39,4.83,-9.42,-6.18,-2.65,18.18,80.0-90.0
80.0,1241.0,2.64,3.47,12.17,1.2,8.3,-2.28,18.18,80.0-90.0
80.0,1999.0,-4.03,1.42,16.74,6.56,-3.14,5.42,18.19,80.0-90.0
80.0,0.0,-5.13,2.47,2.13,5.14,13.96,-1.66,18.21,80.0-90.0
80.0,2896.0,6.42,0.11,10.34,-5.61,-15.61,2.57,18.2,80.0-90.0
80.0,1759.0,2.2,-2.01,12.83,1.41,3.49,-2.53,18.21,80.0-90.0
80.0,1856.0,-4.8,2.98,1.26,5.44,16.02,-1.67,18.21,80.0-90.0
80.0,0.0,0.66,5.26,5.14,8.16,-13.55,3.96,18.21,80.0-90.0
80.0,1356.0,5.18,-4.5,13.22,-3.7,4.75,-1.79,18.21,80.0-90.0
80.0,1926.0,-4.42,-1.17,10.49,-2.8,5.31,-1.29,18.18,80.0-90.0
80.0,1690.0,1.6,4.56,6.09,7.68,-12.74,3.09,18.21,80.0-90.0
80.0,2171.0,1.78,2.79,14.07,0.62,8.21,-2.25,18.21,80.0-90.0
80.0,0.0,-4.4,2.38,13.23,8.01,-1.19,5.21,18.2,80.0-90.0
80.0,1738.0,-3.36,-5.3,6.8,-9.73,-8.82,-2.39,18.17,80.0-90.0
80.0,1834.0,1.57,1.87,15.29,0.42,10.31,-1.78,18.2,80.0-90.0
80.0,2671.0,0.26,-3.57,9.63,-0.89,4.39,-3.27,18.21,80.0-90.0
80.0,1046.0,-3.12,4.22,0.56,3.6,10.76,-1.79,18.19,80.0-90.0
80.0,112.0,7.22,0.24,16.06,-1.53,-12.22,3.69,18.19,80.0-90.0
80.0,2459.0,-1.73,-3.69,7.51,-1.27,4.82,-3.73,18.2,80.0-90.0
80.0,311.0,-1.92,-0.02,7.74,-3.99,-5.59,0.66,18.19,80.0-90.0
80.0,2337.0,4.7,1.51,10.03,4.42,-9.67,0.53,18.19,80.0-90.0
80.0,96.0,0.98,-1.38,7.5,1.29,15.72,-2.51,18.19,80.0-90.0
80.0,325.0,0.35,0.45,7.73,-4.26,-10.41,1.67,18.2,80.0-90.0
80.0,1835.0,-0.06,-5.32,11.82,-8.72,-4.76,-1.96,18.19,80.0-90.0
80.0,946.0,-2.04,0.08,15.2,0.27,11.06,-0.88,18.2,80.0-90.0
80.0,2928.0,-3.74,3.5,7.09,7.11,-9.96,4.65,18.17,80.0-90.0
80.0,0.0,1.89,-4.93,11.84,-6.54,-1.54,-2.24,18.18,80.0-90.0
80.0,1806.0,0.56,1.09,17.1,3.95,-4.56,4.43,18.18,80.0-90.0
80.0,993.0,-3.88,-4.23,4.79,-5.47,-1.47,-3.12,18.2,80.0-90.0
80.0,960.0,0.77,3.17,10.48,0.01,7.54,-1.56,18.2,80.0-90.0
80.0,1263.0,-1.98,1.57,15.56,5.59,-4.35,4.54,18.2,80.0-90.0
80.0,0.0,-2.74,1.9,2.74,2.33,14.45,-2.56,18.21,80.0-90.0
80.0,1677.0,5.84,1.05,11.47,-2.97,-13.14,3.17,18.21,80.0-90.0
80.0,1826.0,1.54,-2.31,10.62,0.7,2.81,-2.36,18.2,80.0-90.0
80.0,1088.0,-3.15,2.47,2.25,2.82,13.6,-2.4,18.19,80.0-90.0
80.0,0.0,1.82,3.29,7.25,5.88,-12.65,2.68,18.19,80.0-90.0
80.0,16.0,3.34,-3.92,10.64,-2.13,7.92,-2.48,18.18,80.0-90.0
80.0,2176.0,-2.7,-0.4,9.29,-2.51,0.23,-0.02,18.19,80.0-90.0
80.0,1731.0,3.36,3.23,8.09,5.81,-12.73,2.02,18.19,80.0-90.0
80.0,1749.0,1.1,1.83,15.97,0.67,11.35,-1.81,18.2,80.0-90.0
80.0,0.0,-5.61,3.21,10.85,8.54,-5.46,5.47,18.2,80.0-90.0
80.0,1488.0,-2.16,-5.68,8.87,-10.44,-8.35,-1.82,18.18,80.0-90.0
80.0,433.0,0.27,0.62,17.35,-0.52,11.44,-1.76,18.19,80.0-90.0
80.0,2590.0,-2.06,-4.67,6.85,-3.61,5.22,-3.88,18.19,80.0-90.0
80.0,935.0,-1.1,5.6,0.96,3.53,7.61,-1.93,18.18,80.0-90.0
80.0,0.0,6.58,0.42,18.41,1.66,-8.38,4.11,18.19,80.0-90.0
80.0,2471.0,-3.99,-5.26,4.92,-5.38,3.11,-4.55,18.21,80.0-90.0
80.0,592.0,-0.13,-0.58,6.59,-6.78,-13.79,1.11,18.19,80.0-90.0
80.0,945.0,6.28,-0.03,13.27,3.49,-4.5,-1.12,18.21,80.0-90.0
80.0,386.0,-2.46,0.76,5.06,5.24,18.13,-1.52,18.19,80.0-90.0
80.0,0.0,2.08,0.11,7.53,-5.8,-13.9,2.17,18.2,80.0-90.0
80.0,2928.0,2.4,-5.34,12.44,-8.05,-3.22,-1.06,18.19,80.0-90.0
80.0,0.0,-2.39,-0.91,15.14,-1.21,11.7,-1.47,18.22,80.0-90.0
80.0,2267.0,-4.21,5.06,5.8,8.68,-11.78,5.27,18.2,80.0-90.0
80.0,0.0,3.21,-5.18,13.09,-7.02,-2.37,-1.59,18.19,80.0-90.0
80.0,1978.0,0.98,1.08,17.29,4.34,-3.66,4.3,18.18,80.0-90.0
80.0,893.0,-4.01,-4.78,4.41,-6.89,-1.89,-4.05,18.2,80.0-90.0
80.0,1167.0,1.5,4.03,9.06,1.4,6.87,-2.51,18.19,80.0-90.0
80.0,1424.0,-1.15,1.34,16.82,5.38,-2.0,4.51,18.19,80.0-90.0
80.0,0.0,-3.58,1.76,3.14,4.04,14.51,-2.11,18.19,80.0-90.0
80.0,2187.0,4.72,0.34,9.48,-5.06,-14.21,2.85,18.17,80.0-90.0
80.0,781.0,3.85,-2.06,12.6,1.7,1.49,-1.76,18.21,80.0-90.0
80.0,1465.0,-4.5,2.52,2.04,4.47,15.06,-1.5,18.22,80.0-90.0
80.0,0.0,0.3,4.71,6.09,7.78,-13.47,4.23,18.2,80.0-90.0
80.0,1200.0,4.24,-4.65,12.65,-4.11,4.7,-2.13,18.19,80.0-90.0
80.0,1794.0,-4.72,-0.76,10.99,-1.47,6.61,-1.5,18.19,80.0-90.0
80.0,1235.0,1.12,4.11,6.57,7.33,-14.51,3.27,18.22,80.0-90.0
80.0,967.0,2.48,2.86,12.31,1.05,9.35,-1.99,18.22,80.0-90.0
80.0,0.0,-3.0,2.14,14.55,6.25,-4.64,5.29,18.2,80.0-90.0
80.0,2128.0,-4.28,-4.82,6.35,-8.21,-5.1,-2.13,18.19,80.0-90.0
80.0,470.0,1.14,2.03,14.34,-0.49,10.83,-1.87,18.19,80.0-90.0
80.0,2490.0,0.8,-3.35,10.11,-0.62,3.19,-2.94,18.19,80.0-90.0
80.0,542.0,-3.3,3.13,1.86,2.51,11.44,-2.16,18.2,80.0-90.0
80.0,0.0,6.57,0.71,14.48,-1.06,-12.1,3.47,18.19,80.0-90.0
80.0,1823.0,-0.55,-3.51,8.47,-1.03,3.92,-3.06,18.19,80.0-90.0
80.0,133.0,-2.36,-0.28,8.82,-3.35,-3.39,0.5,18.19,80.0-90.0
80.0,1581.0,3.69,1.6,9.9,4.68,-9.83,1.26,18.19,80.0-90.0
80.0,0.0,1.41,-2.08,8.1,0.64,11.9,-2.25,18.18,80.0-90.0
80.0,1060.0,-1.09,0.44,9.07,-3.07,-4.36,1.38,18.17,80.0-90.0
80.0,1136.0,-1.35,-4.53,10.55,-7.07,-4.46,-1.49,18.2,80.0-90.0
80.0,335.0,-1.33,0.4,14.62,-1.52,10.89,-1.46,18.19,80.0-90.0
80.0,818.0,-4.2,3.45,9.53,7.12,-8.19,4.74,18.19,80.0-90.0
80.0,0.0,-0.83,-4.74,10.78,-7.34,-4.49,-1.82,18.21,80.0-90.0
80.0,1584.0,3.97,1.09,16.59,1.31,-8.13,3.55,18.19,80.0-90.0
80.0,782.0,-2.55,-3.82,6.03,-2.92,1.43,-3.29,18.19,80.0-90.0
80.0,1450.0,0.31,3.09,5.35,0.86,8.42,-2.6,18.2,80.0-90.0
80.0,128.0,2.07,1.52,15.7,3.43,-5.17,4.02,18.19,80.0-90.0
80.0,305.0,-0.72,0.09,4.4,2.8,14.4,-2.31,18.2,80.0-90.0
80.0,1562.0,2.8,0.76,9.4,-3.32,-10.48,2.68,18.17,80.0-90.0
80.0,1900.0,3.89,-1.55,12.62,1.54,-4.81,-0.31,18.19,80.0-90.0
80.0,1398.0,-2.39,1.28,3.08,3.05,15.99,-2.53,18.18,80.0-90.0
80.0,0.0,-1.47,3.74,8.0,5.75,-13.12,4.01,18.19,80.0-90.0
80.0,1180.0,1.09,-3.87,12.38,-3.01,3.98,-2.11,18.19,80.0-90.0
80.0,1103.0,-3.94,-0.64,11.58,-2.1,5.75,-0.77,18.2,80.0-90.0
80.0,2927.0,0.21,2.95,8.86,4.89,-13.03,3.03,18.19,80.0-90.0
80.0,1478.0,1.48,1.54,11.25,-1.15,9.7,-2.82,18.19,80.0-90.0
80.0,0.0,-3.26,2.21,14.36,5.82,-3.43,4.34,18.2,80.0-90.0
80.0,1415.0,-2.16,-4.08,6.03,-6.75,-5.42,-1.76,18.2,80.0-90.0
80.0,1101.0,1.08,2.37,11.12,0.04,10.13,-1.59,18.19,80.0-90.0
80.0,1935.0,1.7,-2.3,11.25,0.71,0.2,-1.34,18.2,80.0-90.0
80.0,1159.0,-2.65,2.07,2.35,2.85,13.9,-2.43,18.21,80.0-90.0
80.0,208.0,6.08,0.94,12.23,-2.45,-12.38,2.75,18.17,80.0-90.0
80.0,2640.0,0.94,-2.81,10.49,0.12,1.97,-2.89,18.19,80.0-90.0
80.0,1072.0,-3.33,-0.47,10.14,-2.61,1.51,-0.43,18.19,80.0-90.0
80.0,1690.0,2.56,2.88,8.37,5.34,-13.35,2.02,18.2,80.0-90.0
80.0,0.0,2.6,-3.45,10.55,-1.29,8.73,-2.56,18.19,80.0-90.0
80.0,1552.0,-3.49,-0.42,9.42,-3.03,1.39,0.14,18.21,80.0-90.0
80.0,1885.0,-2.84,-4.59,7.49,-8.17,-6.49,-1.69,18.18,80.0-90.0
80.0,864.0,0.38,1.55,14.39,-0.52,11.35,-1.32,18.17,80.0-90.0
80.0,1600.0,-4.26,2.64,12.19,7.44,-5.34,5.58,18.18,80.0-90.0
80.0,0.0,-2.98,-4.86,8.06,-8.69,-7.1,-1.59,18.17,80.0-90.0
80.0,2928.0,6.97,0.6,15.35,-1.35,-12.56,3.78,18.18,80.0-90.0
80.0,1099.0,-1.25,-3.76,8.52,-1.47,3.66,-3.32,18.19,80.0-90.0
80.0,1170.0,-2.1,4.12,1.4,2.92,10.27,-2.4,18.17,80.0-90.0
80.0,0.0,6.12,0.82,16.37,0.09,-11.19,3.72,18.19,80.0-90.0
80.0,543.0,1.55,-1.69,8.43,1.84,15.55,-2.4,18.18,80.0-90.0
80.0,2105.0,-1.54,0.14,7.48,-3.91,-7.32,1.27,18.19,80.0-90.0
80.0,1195.0,4.8,0.57,11.67,2.97,-8.32,0.39,18.18,80.0-90.0
80.0,2099.0,-0.1,-0.54,6.25,2.91,15.93,-2.34,18.19,80.0-90.0
80.0,0.0,-4.79,4.52,7.71,8.02,-8.13,4.88,18.19,80.0-90.0
80.0,2141.0,0.47,-4.63,12.0,-6.66,-4.21,-1.4,18.19,80.0-90.0
80.0,1051.0,-2.37,-0.6,14.95,-1.53,10.83,-1.49,18.16,80.0-90.0
80.0,2928.0,-3.49,4.06,7.58,7.68,-10.71,4.66,18.19,80.0-90.0
80.0,813.0,0.92,3.18,6.23,0.57,8.32,-2.4,18.18,80.0-90.0
80.0,0.0,1.2,1.56,16.2,4.11,-3.97,4.25,18.16,80.0-90.0
80.0,2480.0,-2.91,-3.89,5.46,-5.06,-2.15,-2.39,18.17,80.0-90.0
80.0,911.0,0.95,3.19,7.75,0.65,8.74,-2.14,18.15,80.0-90.0
80.0,2347.0,3.47,-1.3,11.91,1.93,-2.52,-1.24,18.18,80.0-90.0
80.0,565.0,-2.17,0.99,3.75,2.65,15.26,-2.88,18.19,80.0-90.0
80.0,1238.0,4.26,1.58,9.64,-2.39,-12.45,2.43,18.16,80.0-90.0
80.0,2096.0,3.2,-2.25,11.59,1.25,-0.89,-1.53,18.17,80.0-90.0
80.0,2023.0,-3.09,-0.38,11.49,-1.49,6.03,-0.19,18.18,80.0-90.0
80.0,1776.0,0.33,2.65,8.91,4.66,-13.86,3.3,18.19,80.0-90.0
80.0,0.0,1.56,-3.89,11.4,-2.6,5.13,-2.13,18.18,80.0-90.0
80.0,2192.0,-3.76,-0.07,10.48,-1.85,4.26,0.21,18.17,80.0-90.0
80.0,1485.0,-2.54,-4.28,6.42,-6.93,-6.03,-1.9,18.17,80.0-90.0
80.0,2176.0,0.79,2.21,12.69,-0.22,11.21,-2.08,18.17,80.0-90.0
80.0,410.0,-4.16,2.48,13.83,7.24,-3.95,4.86,18.15,80.0-90.0
80.0,183.0,-3.0,-4.9,5.66,-8.75,-7.58,-2.08,18.17,80.0-90.0
80.0,2928.0,7.79,0.68,13.34,-2.89,-14.51,3.23,18.17,80.0-90.0
80.0,2074.0,0.26,-3.33,11.08,-0.1,3.37,-2.95,18.15,80.0-90.0
80.0,2449.0,-3.82,3.99,-0.01,4.42,12.76,-2.3,18.17,80.0-90.0
80.0,0.0,8.28,0.53,14.11,-2.46,-13.98,3.62,18.17,80.0-90.0
80.0,2128.0,2.41,-2.81,11.6,0.59,11.23,-1.24,18.18,80.0-90.0
80.0,2416.0,-3.75,-1.63,8.82,-4.77,-1.94,0.05,18.18,80.0-90.0
80.0,2928.0,3.98,3.25,8.63,5.14,-13.81,2.22,18.17,80.0-90.0
80.0,1063.0,2.53,-2.49,10.82,1.47,13.35,-1.67,18.17,80.0-90.0
80.0,0.0,-6.72,4.49,10.65,9.61,-1.92,4.97,18.18,80.0-90.0
80.0,2928.0,-1.61,-4.34,7.88,-8.15,-10.45,-1.23,18.16,80.0-90.0
80.0,1461.0,1.61,-0.62,16.04,-2.77,11.43,-3.3,18.18,80.0-90.0
80.0,2928.0,-6.45,4.31,10.42,8.84,-2.75,4.92,18.17,80.0-90.0
80.0,61.0,-2.3,2.86,1.37,1.41,10.27,-3.06,18.15,80.0-90.0
80.0,1243.0,6.7,1.88,14.62,1.32,-7.74,4.05,18.14,80.0-90.0
80.0,2640.0,-1.05,-3.69,9.18,-2.03,-1.05,-1.81,18.15,80.0-90.0
80.0,1872.0,-2.29,2.79,1.78,1.76,11.4,-2.92,18.16,80.0-90.0
80.0,2124.0,4.34,1.74,10.29,3.99,-12.19,1.69,18.17,80.0-90.0
80.0,250.0,0.46,-2.09,9.03,1.72,13.29,-2.2,18.16,80.0-90.0
80.0,2928.0,-2.09,-0.14,8.45,-3.62,-3.51,0.5,18.17,80.0-90.0
80.0,1904.0,4.08,1.9,10.94,3.92,-10.45,1.47,18.17,80.0-90.0
80.0,2275.0,-0.08,0.06,15.15,-1.59,12.4,-2.71,18.16,80.0-90.0
80.0,251.0,-5.09,3.69,10.38,7.65,-5.72,4.86,18.19,80.0-90.0
80.0,1083.0,-0.7,-4.61,9.05,-7.89,-7.48,-1.18,18.19,80.0-90.0
80.0,2795.0,-0.24,0.23,15.5,-1.59,12.51,-2.28,18.18,80.0-90.0
80.0,2320.0,-1.85,-3.81,8.13,-2.1,1.68,-2.65,18.16,80.0-90.0
80.0,2093.0,-1.28,3.31,1.93,1.92,10.16,-2.98,18.15,80.0-90.0
80.0,37.0,6.04,1.38,15.43,1.61,-9.05,3.5,18.16,80.0-90.0
80.0,2458.0,0.24,-1.59,8.01,2.3,14.69,-2.4,18.16,80.0-90.0
80.0,2135.0,-1.28,0.12,8.02,-3.99,-6.24,0.97,18.18,80.0-90.0
80.0,2783.0,4.91,0.91,11.73,3.41,-9.58,0.92,18.17,80.0-90.0
80.0,1485.0,-0.06,-1.26,6.79,2.36,14.95,-1.96,18.18,80.0-90.0
80.0,455.0,-5.21,4.29,9.0,7.75,-9.05,5.5,18.16,80.0-90.0
80.0,2928.0,-0.31,-4.43,11.07,-6.52,-3.86,-1.14,18.15,80.0-90.0
80.0,2672.0,-1.56,-0.51,14.78,-2.19,11.11,-1.58,18.16,80.0-90.0
80.0,1962.0,-3.96,4.07,8.51,7.26,-9.49,4.51,18.16,80.0-90.0
80.0,1269.0,0.37,2.88,5.69,0.31,8.77,-3.14,18.17,80.0-90.0
80.0,1690.0,-0.3,-0.1,9.64,-2.61,2.24,0.48,17.85,80.0-90.0
80.0,1135.0,-0.22,-0.28,9.34,-0.4,1.4,0.11,17.88,80.0-90.0
80.0,1334.0,-0.0,2.58,8.27,2.12,4.94,-1.99,17.88,80.0-90.0
80.0,936.0,0.2,-2.52,9.96,-3.27,-1.04,-1.55,17.87,80.0-90.0
80.0,973.0,-1.15,1.77,9.08,0.89,6.45,-3.0,17.87,80.0-90.0
80.0,626.0,-0.17,3.65,9.67,5.91,1.3,0.94,17.85,80.0-90.0
80.0,1049.0,-0.25,0.24,8.32,2.41,-0.35,-2.66,17.84,80.0-90.0
80.0,1504.0,0.03,3.56,9.42,5.61,2.2,2.42,17.82,80.0-90.0
80.0,311.0,-0.14,0.74,7.9,2.12,-0.87,-1.64,17.86,80.0-90.0
80.0,0.0,-0.08,0.94,10.43,0.41,0.09,3.7,17.87,80.0-90.0
80.0,1136.0,4.19,-6.26,10.86,-6.08,-9.2,0.11,17.88,80.0-90.0
80.0,1362.0,-1.05,1.73,9.12,1.22,1.74,2.91,17.87,80.0-90.0
80.0,1771.0,5.88,-6.09,11.84,-4.71,-11.49,-0.85,17.88,80.0-90.0
80.0,1510.0,-4.48,0.43,6.37,-3.09,7.23,-3.79,17.87,80.0-90.0
80.0,1186.0,3.1,3.13,12.2,5.78,3.88,2.13,17.89,80.0-90.0
80.0,1221.0,-4.11,0.33,3.89,-1.81,11.5,-4.22,17.86,80.0-90.0
80.0,0.0,4.99,2.81,13.27,3.96,-0.61,3.18,17.85,80.0-90.0
80.0,1097.0,-4.94,-1.57,7.43,-1.65,-7.94,-0.47,17.87,80.0-90.0
80.0,1363.0,2.87,-0.87,11.71,-1.56,12.54,-0.69,17.87,80.0-90.0
80.0,1744.0,-1.91,-2.58,5.83,-0.88,-3.04,-0.33,17.85,80.0-90.0
80.0,1186.0,2.05,0.03,10.96,-3.26,7.32,-2.71,17.85,80.0-90.0
80.0,842.0,-3.14,4.24,9.87,6.95,-0.08,3.65,17.84,80.0-90.0
80.0,0.0,-0.22,-3.94,11.43,-3.41,-8.24,-2.46,17.85,80.0-90.0
80.0,1137.0,4.09,3.11,13.07,6.2,0.58,2.72,17.85,80.0-90.0
80.0,1485.0,-1.27,-3.93,5.24,-3.94,-9.67,-2.01,17.86,80.0-90.0
80.0,1367.0,2.4,-0.59,11.71,-3.73,10.38,-3.12,17.86,80.0-90.0
80.0,1280.0,-3.85,4.56,10.52,7.0,-1.69,5.26,17.87,80.0-90.0
80.0,0.0,-1.28,1.52,3.74,-2.07,7.71,-2.85,17.87,80.0-90.0
80.0,634.0,5.84,2.69,13.42,4.6,-1.28,4.45,17.85,80.0-90.0
80.0,1813.0,-1.19,-3.94,5.01,-3.91,-6.81,-1.21,17.87,80.0-90.0
80.0,640.0,2.31,1.17,8.35,-2.36,11.5,-4.51,17.86,80.0-90.0
80.0,1470.0,2.23,-3.08,13.66,0.01,-5.86,-1.24,17.86,80.0-90.0
80.0,0.0,-3.05,2.13,1.06,3.24,14.24,-4.71,17.87,80.0-90.0
80.0,816.0,7.24,1.5,12.99,-0.63,-9.98,2.62,17.85,80.0-90.0
80.0,1794.0,0.06,-4.76,10.77,-2.14,-1.53,-2.05,17.84,80.0-90.0
80.0,320.0,-4.68,-1.22,9.01,-5.47,-1.05,1.21,17.84,80.0-90.0
80.0,1483.0,4.68,1.42,12.57,2.3,-14.05,2.91,17.86,80.0-90.0
80.0,0.0,-1.6,-0.65,7.4,4.56,16.48,-1.14,17.85,80.0-90.0
80.0,578.0,-1.8,-0.34,8.97,-4.77,-7.55,2.54,17.86,80.0-90.0
80.0,1698.0,0.64,-3.46,10.25,-4.19,-4.88,-0.48,17.84,80.0-90.0
80.0,1060.0,-1.82,-2.67,14.81,-4.64,10.91,-2.63,17.84,80.0-90.0
80.0,878.0,-4.38,4.81,8.28,6.24,-9.54,3.15,17.84,80.0-90.0
80.0,0.0,1.2,-2.75,12.65,-1.04,0.78,-1.88,17.87,80.0-90.0
80.0,1635.0,0.76,4.01,12.42,7.43,2.9,2.6,17.89,80.0-90.0
80.0,1600.0,-1.2,-2.64,5.31,-4.11,-10.38,-0.66,17.87,80.0-90.0
80.0,742.0,2.81,-1.01,9.93,-4.06,11.21,-3.79,17.86,80.0-90.0
80.0,145.0,-2.62,4.26,11.79,6.4,-0.4,3.94,17.84,80.0-90.0
80.0,0.0,-1.86,0.09,3.03,-0.02,10.24,-2.98,17.89,80.0-90.0
80.0,1851.0,4.72,2.58,11.81,1.51,-2.21,2.34,17.85,80.0-90.0
80.0,1473.0,0.52,-1.74,10.8,1.25,-5.81,0.54,17.84,80.0-90.0
80.0,973.0,-1.33,-0.61,3.99,-0.23,8.65,-4.2,17.85,80.0-90.0
80.0,0.0,1.71,2.12,11.81,4.22,-12.1,2.8,17.85,80.0-90.0
80.0,1198.0,-1.17,-2.98,10.01,-0.8,4.5,-2.19,17.86,80.0-90.0
80.0,1334.0,-3.11,-0.3,10.94,-2.6,6.79,-0.63,17.87,80.0-90.0
80.0,1955.0,1.03,3.27,10.54,4.79,-12.5,4.37,17.86,80.0-90.0
80.0,112.0,1.37,0.37,8.58,-2.6,11.89,-3.15,17.85,80.0-90.0
80.0,0.0,-1.79,3.03,13.56,5.26,-2.81,4.13,17.84,80.0-90.0
80.0,1902.0,-0.92,-3.63,6.25,-4.95,-8.64,-0.25,17.87,80.0-90.0
80.0,406.0,2.67,0.87,7.99,-1.97,11.32,-4.54,17.87,80.0-90.0
80.0,894.0,1.95,-1.24,13.63,1.25,-4.72,-0.34,17.85,80.0-90.0
80.0,0.0,-4.09,0.53,2.95,3.84,13.09,-3.81,17.85,80.0-90.0
80.0,1515.0,4.63,0.52,10.55,-3.39,-8.06,1.47,17.86,80.0-90.0
80.0,2073.0,2.2,-1.24,14.2,1.26,-4.15,0.04,17.85,80.0-90.0
80.0,1049.0,-5.23,-2.28,12.17,-4.95,10.09,-1.99,17.85,80.0-90.0
80.0,0.0,-0.88,5.13,8.19,7.12,-13.12,5.15,17.84,80.0-90.0
80.0,0.0,2.38,-3.69,12.1,-2.68,0.96,-0.04,17.87,80.0-90.0
80.0,2047.0,-4.51,-2.04,12.85,-4.9,9.7,-1.88,17.87,80.0-90.0
80.0,1958.0,-2.48,-4.14,5.93,-5.42,-7.66,-0.79,17.86,80.0-90.0
80.0,1200.0,3.12,1.2,6.6,-1.5,9.22,-4.78,17.87,80.0-90.0
80.0,0.0,1.06,3.71,14.32,7.09,-0.35,3.33,17.85,80.0-90.0
80.0,1290.0,-2.44,-3.89,6.09,-4.54,-7.9,-1.21,17.86,80.0-90.0
80.0,435.0,2.82,0.74,10.12,-3.01,-7.86,1.41,17.86,80.0-90.0
80.0,1840.0,3.13,-1.01,13.58,1.22,-5.36,0.6,17.86,80.0-90.0
80.0,91.0,-3.49,0.2,4.09,3.69,12.77,-2.24,17.84,80.0-90.0
80.0,0.0,2.27,0.63,9.69,-3.58,-5.59,2.36,17.85,80.0-90.0
80.0,1901.0,2.05,-3.73,11.96,-3.03,-2.62,0.11,17.88,80.0-90.0
80.0,1008.0,-3.92,-2.32,13.12,-4.87,12.02,-2.42,17.86,80.0-90.0
80.0,625.0,-2.81,5.46,7.83,7.61,-10.48,4.17,17.87,80.0-90.0
80.0,0.0,2.5,-3.75,12.02,-3.38,-3.43,-0.94,17.86,80.0-90.0
80.0,2226.0,2.08,3.13,15.05,6.13,-0.12,3.29,17.87,80.0-90.0
80.0,1319.0,-3.21,-4.0,6.08,-4.89,-7.08,-1.55,17.88,80.0-90.0
80.0,878.0,2.73,1.7,4.51,-0.14,10.3,-5.18,17.87,80.0-90.0
80.0,0.0,2.7,3.03,14.93,4.91,-1.31,3.75,17.87,80.0-90.0
80.0,844.0,-3.66,-0.41,5.51,4.04,14.27,-2.17,17.87,80.0-90.0
80.0,1238.0,0.44,0.07,9.08,-4.63,-6.23,1.49,17.84,80.0-90.0
80.0,1603.0,5.11,0.01,13.82,2.33,-8.96,1.81,17.86,80.0-90.0
80.0,1439.0,-3.7,-0.91,5.14,3.47,14.51,-2.02,17.84,80.0-90.0
80.0,0.0,-3.72,5.13,9.26,8.04,-10.12,5.01,17.84,80.0-90.0
80.0,2646.0,2.37,-4.11,10.6,-4.35,-5.28,-0.36,17.87,80.0-90.0
80.0,1047.0,-2.52,-2.04,14.57,-4.54,12.74,-3.43,17.87,80.0-90.0
80.0,1673.0,-5.06,5.89,8.11,9.18,-7.28,4.37,17.87,80.0-90.0
80.0,0.0,1.63,1.97,3.31,-0.13,8.5,-4.63,17.85,80.0-90.0
80.0,634.0,4.58,3.12,14.96,5.01,-0.67,3.41,17.85,80.0-90.0
80.0,2256.0,-3.23,-3.96,6.8,-3.67,-6.32,-0.53,17.84,80.0-90.0
80.0,1094.0,2.1,1.37,3.83,-1.17,8.97,-4.2,17.85,80.0-90.0
80.0,886.0,5.51,0.39,14.04,2.44,-8.55,1.49,17.88,80.0-90.0
80.0,0.0,-4.17,-1.33,6.55,3.37,14.62,-1.85,17.86,80.0-90.0
80.0,1535.0,-0.53,-0.63,8.83,-5.65,-5.26,0.59,17.84,80.0-90.0
80.0,1535.0,5.74,2.07,12.28,4.39,-10.18,1.66,17.85,80.0-90.0
80.0,1743.0,-1.29,-1.32,14.24,-3.68,15.44,-4.34,17.86,80.0-90.0
80.0,0.0,-6.49,5.33,10.33,10.02,-7.45,5.32,17.85,80.0-90.0
80.0,1651.0,2.39,-4.85,7.2,-8.08,-9.75,-0.4,17.87,80.0-90.0
80.0,1205.0,0.71,-0.79,15.44,-3.36,15.78,-4.36,17.84,80.0-90.0
80.0,1973.0,-3.61,-4.71,10.41,-3.51,-0.47,-1.64,17.85,80.0-90.0
80.0,959.0,-1.46,4.07,0.04,3.81,10.47,-3.18,17.85,80.0-90.0
80.0,0.0,7.48,2.11,15.88,1.69,-8.56,4.74,17.84,80.0-90.0
80.0,2288.0,-2.82,-5.97,10.08,-5.21,-0.44,-2.63,17.87,80.0-90.0
80.0,229.0,-3.61,-1.9,6.44,-7.71,-5.43,-0.05,17.87,80.0-90.0
80.0,2058.0,6.89,1.21,13.24,2.04,-14.11,0.39,17.85,80.0-90.0
80.0,0.0,-2.42,-0.38,7.67,6.56,19.64,-2.1,17.86,80.0-90.0
80.0,1130.0,-1.88,-1.26,7.44,-7.45,-10.07,0.86,17.85,80.0-90.0
80.0,2687.0,3.05,-4.03,9.19,-6.73,-9.35,0.24,17.86,80.0-90.0
80.0,869.0,-1.14,-3.11,16.61,-5.68,14.65,-4.48,17.84,80.0-90.0
80.0,1239.0,-6.68,6.68,7.48,10.63,-8.36,5.58,17.86,80.0-90.0
80.0,0.0,2.68,-3.75,10.04,-5.25,-5.57,0.31,17.84,80.0-90.0
80.0,2375.0,5.54,3.22,15.28,5.99,-3.01,4.39,17.88,80.0-90.0
80.0,1564.0,-2.97,-4.83,6.11,-4.49,-3.91,-1.53,17.85,80.0-90.0
80.0,1075.0,1.01,1.78,4.48,-1.12,9.44,-4.72,17.85,80.0-90.0
80.0,0.0,4.1,3.43,15.15,6.91,-2.7,4.11,17.86,80.0-90.0
80.0,0.0,-3.79,0.89,4.03,5.55,18.39,-2.82,17.87,80.0-90.0
80.0,2714.0,1.73,0.43,9.56,-3.97,-9.87,2.11,17.88,80.0-90.0
80.0,1936.0,3.41,-1.53,15.35,-0.17,-6.78,-0.13,17.87,80.0-90.0
80.0,827.0,-4.66,1.11,2.92,5.72,16.89,-2.83,17.86,80.0-90.0
80.0,0.0,-2.44,5.79,7.08,7.38,-11.95,4.37,17.85,80.0-90.0
80.0,1535.0,2.28,-3.47,12.93,-2.74,0.49,-0.14,17.84,80.0-90.0
80.0,877.0,-5.2,-2.97,13.91,-5.36,10.33,-2.54,17.87,80.0-90.0
80.0,1829.0,-2.29,5.53,6.74,7.58,-12.21,4.54,17.86,80.0-90.0
80.0,641.0,4.04,1.17,6.73,-1.49,9.19,-4.69,17.84,80.0-90.0
80.0,0.0,0.91,3.76,14.77,8.59,1.13,4.48,17.84,80.0-90.0
80.0,2202.0,-2.96,-4.32,4.1,-5.7,-8.67,-0.6,17.89,80.0-90.0
80.0,1147.0,4.17,0.63,7.98,-2.63,10.27,-5.21,17.86,80.0-90.0
80.0,1967.0,3.71,-2.69,15.39,-0.2,-5.13,-0.63,17.84,80.0-90.0
80.0,0.0,-5.29,1.22,1.72,4.18,16.31,-3.2,17.85,80.0-90.0
80.0,958.0,4.54,1.6,11.36,-2.75,-12.34,2.66,17.84,80.0-90.0
80.0,1937.0,2.61,-2.41,14.1,0.18,-4.04,-0.08,17.86,80.0-90.0
80.0,1140.0,-4.84,-2.4,12.11,-5.62,6.94,-1.96,17.86,80.0-90.0
80.0,12.0,-0.32,4.31,8.68,5.29,-12.99,3.76,17.85,80.0-90.0
80.0,0.0,1.55,-3.0,12.28,-0.62,4.21,-0.68,17.84,80.0-90.0
80.0,1734.0,-5.2,-2.07,11.11,-4.84,7.63,-1.64,17.84,80.0-90.0
80.0,1295.0,-0.96,-2.88,5.77,-3.65,-10.94,0.28,17.87,80.0-90.0
80.0,1872.0,2.9,-0.44,7.89,-2.84,11.96,-4.49,17.85,80.0-90.0
80.0,0.0,-0.12,3.4,13.46,6.05,-1.45,3.7,17.86,80.0-90.0
80.0,1514.0,-1.58,-3.1,5.86,-3.82,-8.47,-0.11,17.84,80.0-90.0
80.0,1839.0,3.64,1.18,10.35,-2.36,-6.41,1.78,17.85,80.0-90.0
80.0,1690.0,2.57,-1.29,14.21,0.67,-6.44,0.59,17.87,80.0-90.0
80.0,0.0,-3.74,-0.22,3.66,2.68,12.36,-3.38,17.87,80.0-90.0
80.0,87.0,2.32,1.48,10.37,-2.1,-5.95,1.61,17.85,80.0-90.0
80.0,1883.0,1.8,-3.14,11.73,-1.73,0.3,-0.71,17.86,80.0-90.0
80.0,1439.0,-4.61,-1.69,11.79,-4.42,11.25,-2.36,17.86,80.0-90.0
80.0,1456.0,-2.06,4.16,9.63,6.08,-11.57,4.59,17.84,80.0-90.0
80.0,0.0,2.23,-3.72,10.62,-3.62,-2.84,-0.31,17.85,80.0-90.0
80.0,1526.0,2.6,2.32,14.36,3.44,-2.61,3.41,17.85,80.0-90.0
80.0,1629.0,-2.93,-2.69,8.45,-2.11,-5.65,-0.3,17.86,80.0-90.0
80.0,883.0,0.6,1.72,2.72,0.99,11.52,-4.31,17.87,80.0-90.0
80.0,0.0,5.18,2.05,14.37,1.6,-6.32,3.06,17.88,80.0-90.0
80.0,1461.0,-1.53,-1.93,8.84,2.59,12.13,-2.17,17.86,80.0-90.0
80.0,1184.0,-2.63,-0.82,8.51,-4.66,-2.61,0.04,17.88,80.0-90.0
80.0,1865.0,4.89,2.0,11.32,3.41,-11.46,2.31,17.84,80.0-90.0
80.0,0.0,-1.42,-1.73,8.9,2.36,11.87,-2.01,17.86,80.0-90.0
80.0,0.0,-4.99,4.85,10.57,7.88,-4.01,4.45,17.87,80.0-90.0
80.0,2222.0,1.65,-3.47,8.01,-5.15,-9.6,0.02,17.86,80.0-90.0
80.0,463.0,0.48,-0.65,12.62,-3.21,14.51,-4.16,17.85,80.0-90.0
80.0,1390.0,-5.04,4.12,12.21,7.96,-5.23,4.72,17.84,80.0-90.0
80.0,0.0,-2.35,1.2,2.26,2.05,11.63,-3.78,17.84,80.0-90.0
80.0,1456.0,6.25,1.75,12.24,-0.49,-7.55,2.74,17.86,80.0-90.0
80.0,1699.0,-0.02,-2.75,12.19,-0.31,-2.95,-0.21,17.87,80.0-90.0
80.0,1484.0,-3.44,1.2,2.27,1.72,11.34,-3.47,17.84,80.0-90.0
80.0,0.0,3.01,3.44,10.07,4.72,-13.7,3.67,17.85,80.0-90.0
80.0,317.0,-0.18,-3.0,11.37,0.27,8.56,-1.23,17.86,80.0-90.0
80.0,1840.0,-5.0,-1.57,10.2,-5.24,3.88,-1.12,17.87,80.0-90.0
80.0,1472.0,2.81,4.11,9.83,5.72,-13.44,3.79,17.86,80.0-90.0
80.0,384.0,2.37,-0.18,9.38,-3.01,14.48,-5.06,17.87,80.0-90.0
80.0,0.0,-2.56,4.0,13.87,7.26,-3.71,4.26,17.83,80.0-90.0
80.0,1962.0,-0.48,-4.1,5.74,-5.71,-8.39,-0.65,17.85,80.0-90.0
80.0,577.0,2.83,0.72,7.71,-2.31,12.07,-4.98,17.85,80.0-90.0
80.0,1311.0,2.0,-1.14,14.05,1.12,-5.25,0.28,17.85,80.0-90.0
80.0,0.0,-4.83,0.58,3.0,4.66,14.51,-2.89,17.86,80.0-90.0
80.0,853.0,4.01,0.45,10.31,-3.97,-9.32,1.99,17.85,80.0-90.0
80.0,2107.0,3.33,-1.38,14.75,1.25,-5.48,0.62,17.87,80.0-90.0
80.0,912.0,-4.62,-2.85,12.4,-5.47,10.57,-2.92,17.86,80.0-90.0
80.0,0.0,-2.38,4.9,9.25,5.98,-12.54,4.54,17.85,80.0-90.0
80.0,313.0,2.79,-3.32,11.23,-1.78,-0.43,-0.48,17.83,80.0-90.0
80.0,1211.0,-4.33,-1.3,11.34,-4.31,12.21,-2.75,17.85,80.0-90.0
80.0,1827.0,-1.94,-2.6,7.33,-2.74,-9.17,-0.07,17.85,80.0-90.0
80.0,495.0,1.96,0.7,5.3,-0.51,12.39,-4.52,17.86,80.0-90.0
80.0,0.0,2.64,2.47,13.71,3.0,-3.17,3.29,17.85,80.0-90.0
80.0,1745.0,-2.14,-3.19,8.76,-3.03,-7.0,0.01,17.85,80.0-90.0
80.0,1344.0,-0.13,-0.99,9.11,-5.65,-2.67,0.56,17.85,80.0-90.0
80.0,1600.0,5.0,2.65,11.69,4.5,-10.73,2.42,17.86,80.0-90.0
80.0,211.0,-2.62,-1.95,9.46,2.92,12.16,-1.72,17.87,80.0-90.0
80.0,925.0,-6.29,5.68,10.39,10.11,-5.01,4.94,17.86,80.0-90.0
80.0,2316.0,2.73,-4.41,6.99,-6.87,-11.32,-0.3,17.86,80.0-90.0
80.0,930.0,0.92,-1.5,13.36,-4.4,14.46,-5.18,17.86,80.0-90.0
80.0,0.0,-5.66,5.69,11.65,10.0,-3.33,4.91,17.86,80.0-90.0
80.0,0.0,-2.6,1.67,1.36,2.42,12.54,-4.25,17.83,80.0-90.0
80.0,1408.0,6.77,2.13,12.79,0.15,-6.24,2.69,17.87,80.0-90.0
80.0,1213.0,-0.93,-2.27,11.65,-0.22,-3.4,-0.21,17.85,80.0-90.0
80.0,646.0,-2.72,0.64,3.05,2.04,10.1,-3.41,17.86,80.0-90.0
80.0,0.0,2.22,3.81,10.03,5.79,-11.38,3.59,17.84,80.0-90.0
80.0,1386.0,-0.11,-2.99,11.11,-0.22,5.19,-0.86,17.86,80.0-90.0
80.0,1752.0,-4.22,-2.27,11.65,-5.59,6.91,-1.67,17.85,80.0-90.0
80.0,1675.0,0.44,4.78,8.49,6.86,-12.79,4.4,17.86,80.0-90.0
80.0,0.0,3.21,0.3,8.21,-2.19,10.89,-4.48,17.84,80.0-90.0
80.0,889.0,-1.01,3.92,13.87,7.27,0.2,4.11,17.84,80.0-90.0
80.0,2103.0,-1.24,-3.66,6.31,-4.55,-10.03,-0.28,17.86,80.0-90.0
80.0,819.0,2.35,0.3,6.77,-2.39,12.4,-5.04,17.86,80.0-90.0
80.0,334.0,2.86,-0.98,14.1,1.22,-8.41,0.77,17.85,80.0-90.0
