Speed,Voice,Acceleration X,Acceleration Y,Acceleration Z,Gyro X,Gyro Y,Gyro Z,Temperature,Speed_Range
80.0,1639.0,-1.93,4.85,9.51,7.7,-2.39,3.23,27.82,80.0-90.0
80.0,2064.0,-2.13,-3.09,8.62,-5.06,5.33,-3.45,27.81,80.0-90.0
80.0,2390.0,-0.67,4.73,9.4,8.81,-1.69,3.94,27.82,80.0-90.0
80.0,2287.0,-2.93,-2.18,8.18,-1.01,7.8,-2.23,27.81,80.0-90.0
80.0,752.0,-0.27,1.2,9.73,-2.49,1.3,2.03,27.81,80.0-90.0
80.0,1678.0,-1.74,4.98,9.58,7.87,-3.73,4.81,27.8,80.0-90.0
80.0,2014.0,1.41,-2.55,9.19,-5.77,5.12,-1.71,27.81,80.0-90.0
80.0,2864.0,0.75,5.47,9.93,10.31,-4.56,5.52,27.8,80.0-90.0
80.0,1313.0,-1.52,-3.28,8.62,-0.58,5.87,-4.44,27.8,80.0-90.0
80.0,1904.0,1.53,-3.27,9.4,-7.54,4.23,-4.38,27.8,80.0-90.0
80.0,2538.0,-1.44,0.69,9.58,5.27,-1.9,0.15,27.8,80.0-90.0
80.0,2352.0,-1.54,-6.95,10.32,-14.99,3.76,-8.24,27.8,80.0-90.0
80.0,2107.0,0.68,5.01,10.74,4.97,-4.51,6.36,27.82,80.0-90.0
80.0,526.0,-1.88,3.24,10.5,8.94,-5.55,4.7,27.79,80.0-90.0
80.0,2927.0,1.39,-0.53,8.59,-5.44,6.75,0.14,27.78,80.0-90.0
80.0,1757.0,1.82,7.36,10.88,16.12,-7.87,11.08,27.79,80.0-90.0
80.0,859.0,-1.62,-5.12,9.14,-5.73,-2.45,-6.26,27.8,80.0-90.0
80.0,2495.0,-0.69,-4.63,9.15,-12.75,9.71,-6.42,27.8,80.0-90.0
80.0,1971.0,-1.21,3.71,11.54,10.39,-11.74,3.94,27.8,80.0-90.0
80.0,2497.0,-1.88,-7.51,6.67,-15.14,10.98,-11.99,27.82,80.0-90.0
80.0,2181.0,2.35,1.34,8.79,0.76,12.15,1.02,27.8,80.0-90.0
80.0,2928.0,3.21,6.51,13.21,15.04,-17.86,10.5,27.82,80.0-90.0
80.0,2619.0,-3.99,-6.19,7.61,-15.2,14.88,-9.0,27.79,80.0-90.0
80.0,1792.0,-0.43,6.14,9.78,10.48,7.03,8.0,27.81,80.0-90.0
80.0,2515.0,1.11,4.5,11.92,10.86,-13.94,7.32,27.82,80.0-90.0
80.0,2279.0,-0.72,-7.06,7.19,-12.38,8.32,-9.43,27.82,80.0-90.0
80.0,2416.0,-0.0,7.66,11.96,13.24,-10.61,10.64,27.79,80.0-90.0
80.0,2927.0,-3.29,1.38,10.28,3.63,-11.19,1.45,27.81,80.0-90.0
80.0,2928.0,-2.92,-7.28,5.56,-14.01,19.55,-12.25,27.8,80.0-90.0
80.0,1226.0,2.96,7.22,14.28,13.85,-22.39,10.88,27.82,80.0-90.0
80.0,1267.0,-2.92,-2.45,9.16,-3.82,-10.19,-2.96,27.81,80.0-90.0
80.0,2928.0,-3.9,-6.46,6.62,-15.11,18.21,-10.82,27.81,80.0-90.0
80.0,1491.0,0.23,4.77,9.5,9.24,11.13,5.95,27.82,80.0-90.0
80.0,2928.0,-1.29,-5.6,8.41,-9.76,-5.64,-6.42,27.79,80.0-90.0
80.0,2496.0,-3.03,-4.79,8.05,-13.25,13.79,-7.77,27.79,80.0-90.0
80.0,1501.0,-0.78,6.77,10.1,13.21,3.21,9.38,27.8,80.0-90.0
80.0,2124.0,0.96,3.86,12.42,9.17,-16.47,7.0,27.81,80.0-90.0
80.0,1808.0,-0.17,-3.48,9.02,-9.33,11.92,-6.06,27.8,80.0-90.0
80.0,1318.0,-0.16,7.9,11.59,14.41,-8.23,10.96,27.81,80.0-90.0
80.0,2152.0,-1.98,2.02,11.25,4.15,-14.44,3.05,27.8,80.0-90.0
80.0,1762.0,-2.09,-7.31,5.37,-13.04,17.68,-12.66,27.81,80.0-90.0
80.0,931.0,1.43,7.82,13.37,14.02,-17.66,12.77,27.81,80.0-90.0
80.0,1877.0,-3.47,0.11,10.38,-1.15,-14.85,1.1,27.8,80.0-90.0
80.0,1919.0,-3.52,-7.06,4.74,-13.14,22.33,-11.81,27.81,80.0-90.0
80.0,909.0,2.62,0.9,9.65,3.72,14.92,1.72,27.8,80.0-90.0
80.0,1467.0,-3.24,-1.8,9.57,-5.3,-14.06,-1.82,27.81,80.0-90.0
80.0,397.0,-4.29,-6.52,4.81,-13.08,22.61,-11.84,27.8,80.0-90.0
80.0,988.0,1.5,2.89,9.66,8.16,14.99,3.07,27.82,80.0-90.0
80.0,656.0,4.28,6.27,14.85,12.49,-24.32,11.18,27.79,80.0-90.0
80.0,677.0,-4.23,-5.67,5.77,-12.72,20.53,-11.22,27.8,80.0-90.0
80.0,1332.0,0.15,4.67,9.73,10.97,12.23,5.39,27.81,80.0-90.0
80.0,0.0,3.94,5.41,14.13,10.95,-22.45,10.42,27.8,80.0-90.0
80.0,1638.0,-1.29,-5.81,7.8,-11.1,-2.88,-7.66,27.82,80.0-90.0
80.0,2928.0,-0.61,6.07,10.02,12.67,6.68,8.36,27.82,80.0-90.0
80.0,10.0,2.62,4.49,13.26,9.04,-20.13,9.12,27.82,80.0-90.0
80.0,803.0,-1.21,-6.59,7.07,-11.8,3.81,-9.69,27.81,80.0-90.0
80.0,1653.0,-1.17,-3.83,8.71,-9.34,13.92,-6.61,27.8,80.0-90.0
80.0,0.0,0.74,3.47,12.49,6.69,-18.23,6.23,27.83,80.0-90.0
80.0,1594.0,-1.42,-7.07,6.19,-12.17,10.38,-11.72,27.81,80.0-90.0
80.0,2173.0,0.37,-2.86,9.14,-6.52,14.17,-5.17,27.81,80.0-90.0
80.0,0.0,0.01,7.94,12.26,14.44,-10.69,11.66,27.83,80.0-90.0
80.0,625.0,-1.68,-7.24,5.43,-12.38,16.24,-11.99,27.82,80.0-90.0
80.0,2277.0,2.28,-2.09,9.6,-3.71,13.33,-2.61,27.81,80.0-90.0
80.0,0.0,0.84,8.01,13.5,13.88,-17.53,13.18,27.82,80.0-90.0
80.0,1787.0,-2.58,0.64,10.8,-0.49,-16.06,2.03,27.82,80.0-90.0
80.0,1921.0,2.46,-0.91,9.72,-0.37,14.52,-1.22,27.8,80.0-90.0
80.0,1050.0,1.97,7.75,14.42,13.56,-21.58,12.82,27.82,80.0-90.0
80.0,1671.0,-3.25,-0.57,10.02,-3.04,-14.95,-0.7,27.81,80.0-90.0
80.0,2233.0,-3.85,-6.88,4.28,-12.52,23.8,-12.79,27.83,80.0-90.0
80.0,1923.0,3.4,7.24,15.03,13.07,-24.79,12.63,27.82,80.0-90.0
80.0,1719.0,-3.26,-2.01,9.43,-5.93,-14.02,-2.5,27.81,80.0-90.0
80.0,969.0,-4.08,-6.45,4.55,-12.65,23.37,-11.66,27.81,80.0-90.0
80.0,1053.0,1.83,2.57,9.88,7.75,14.52,3.6,27.8,80.0-90.0
80.0,1151.0,-2.72,-3.17,8.85,-7.99,-11.93,-3.77,27.81,80.0-90.0
80.0,1036.0,-4.67,-5.8,5.06,-12.46,22.53,-10.68,27.8,80.0-90.0
80.0,1777.0,0.8,3.97,9.97,10.31,13.72,4.79,27.8,80.0-90.0
80.0,1600.0,4.07,5.72,15.01,11.04,-25.0,10.94,27.8,80.0-90.0
80.0,134.0,-3.98,-5.23,6.2,-12.24,19.71,-10.25,27.8,80.0-90.0
80.0,2133.0,0.5,5.14,10.15,11.85,8.58,6.2,27.81,80.0-90.0
80.0,342.0,3.73,5.03,14.12,9.85,-23.41,9.8,27.82,80.0-90.0
80.0,662.0,-0.87,-6.06,7.57,-11.31,-2.39,-8.48,27.83,80.0-90.0
80.0,2523.0,-0.96,6.23,10.18,13.25,5.84,8.38,27.82,80.0-90.0
80.0,0.0,2.65,4.34,13.55,8.4,-20.71,8.76,27.82,80.0-90.0
80.0,1047.0,-0.86,-6.69,6.81,-11.85,4.05,-9.63,27.81,80.0-90.0
80.0,2592.0,-1.79,-3.79,8.76,-9.36,15.63,-6.67,27.8,80.0-90.0
80.0,0.0,1.24,3.69,12.75,6.66,-20.35,7.1,27.81,80.0-90.0
80.0,943.0,-0.84,-6.95,6.16,-11.8,9.77,-11.22,27.82,80.0-90.0
80.0,2928.0,0.2,-3.23,9.46,-7.63,12.84,-5.49,27.79,80.0-90.0
80.0,161.0,-0.12,7.83,11.8,14.35,-9.65,11.25,27.82,80.0-90.0
80.0,2409.0,-1.42,-7.23,5.52,-12.09,15.22,-12.21,27.81,80.0-90.0
80.0,2480.0,0.89,-2.54,9.8,-5.19,12.95,-3.8,27.8,80.0-90.0
80.0,742.0,0.76,7.9,12.81,14.14,-14.95,12.62,27.82,80.0-90.0
80.0,2787.0,-2.94,1.31,11.12,0.56,-16.37,2.82,27.8,80.0-90.0
80.0,2927.0,2.48,-1.72,10.07,-2.17,13.47,-1.97,27.79,80.0-90.0
80.0,1333.0,1.62,7.87,13.8,13.67,-20.53,13.15,27.81,80.0-90.0
80.0,2864.0,-3.11,0.06,10.49,-2.13,-16.33,0.73,27.82,80.0-90.0
80.0,2202.0,-2.98,-7.02,4.14,-12.32,23.61,-12.77,27.79,80.0-90.0
80.0,1888.0,2.34,7.54,14.82,13.21,-23.11,12.76,27.81,80.0-90.0
80.0,2002.0,-3.52,-0.89,9.81,-4.28,-15.47,-1.22,27.81,80.0-90.0
80.0,1459.0,-3.99,-6.72,4.0,-12.27,25.29,-12.34,27.8,80.0-90.0
80.0,2928.0,2.37,1.29,9.98,5.38,15.28,1.71,27.82,80.0-90.0
80.0,2925.0,-3.21,-2.18,9.29,-6.51,-13.7,-2.5,27.8,80.0-90.0
80.0,991.0,-4.08,-6.36,4.49,-12.58,24.13,-11.54,27.8,80.0-90.0
80.0,1743.0,1.49,2.69,10.01,8.11,15.17,3.46,27.79,80.0-90.0
80.0,1369.0,4.69,6.24,15.23,11.68,-25.99,12.05,27.8,80.0-90.0
80.0,182.0,-4.29,-5.82,5.11,-12.41,22.53,-11.02,27.79,80.0-90.0
80.0,2419.0,0.82,3.95,10.02,10.22,12.64,4.73,27.81,80.0-90.0
80.0,862.0,4.33,5.64,14.74,10.75,-25.28,10.93,27.81,80.0-90.0
80.0,2006.0,-1.61,-5.09,7.84,-10.41,-6.1,-7.08,27.82,80.0-90.0
80.0,2927.0,-0.04,5.19,10.11,12.13,9.86,6.44,27.84,80.0-90.0
80.0,243.0,3.95,5.03,14.05,9.91,-22.62,9.86,27.8,80.0-90.0
80.0,563.0,-1.47,-5.77,7.26,-11.01,-0.45,-8.29,27.82,80.0-90.0
80.0,2928.0,-2.74,-4.39,7.85,-10.85,16.79,-7.87,27.82,80.0-90.0
80.0,0.0,2.86,4.41,13.43,8.36,-21.49,8.74,27.82,80.0-90.0
80.0,2082.0,-0.84,-6.48,6.65,-11.6,3.81,-9.75,27.83,80.0-90.0
80.0,2926.0,-1.44,-4.01,8.65,-9.85,14.4,-6.82,27.81,80.0-90.0
80.0,0.0,-0.68,7.26,11.2,14.02,-3.04,10.09,27.83,80.0-90.0
80.0,1925.0,-1.3,-6.8,5.96,-11.75,10.02,-11.18,27.8,80.0-90.0
80.0,2033.0,-0.05,-3.41,9.22,-7.82,14.38,-5.65,27.8,80.0-90.0
80.0,241.0,-0.4,7.75,12.02,14.35,-8.95,11.38,27.81,80.0-90.0
80.0,2076.0,-0.95,2.36,11.81,3.47,-17.77,4.9,27.8,80.0-90.0
80.0,2213.0,1.46,-2.7,9.69,-5.54,13.22,-3.98,27.82,80.0-90.0
80.0,1924.0,0.49,7.88,12.9,13.97,-15.18,12.51,27.81,80.0-90.0
80.0,2065.0,-2.22,1.4,11.19,0.85,-17.43,3.17,27.82,80.0-90.0
80.0,1315.0,-2.46,-7.21,4.61,-12.06,20.94,-12.48,27.81,80.0-90.0
80.0,1035.0,1.09,7.99,13.83,13.96,-19.11,12.82,27.8,80.0-90.0
80.0,1978.0,-3.16,0.47,10.48,-1.24,-16.2,1.22,27.83,80.0-90.0
80.0,767.0,-3.28,-7.0,3.97,-11.8,24.53,-12.79,27.82,80.0-90.0
80.0,2239.0,2.82,-0.26,10.18,1.81,14.95,-0.52,27.82,80.0-90.0
80.0,1685.0,-3.39,-0.75,9.88,-3.82,-15.88,-0.5,27.8,80.0-90.0
80.0,0.0,-3.8,-6.84,4.04,-12.35,24.56,-12.28,27.82,80.0-90.0
80.0,1598.0,2.61,0.9,9.99,4.59,14.49,1.4,27.81,80.0-90.0
80.0,713.0,3.75,6.88,15.46,12.35,-26.28,13.0,27.81,80.0-90.0
80.0,0.0,-4.5,-6.32,4.1,-12.24,24.89,-11.78,27.79,80.0-90.0
80.0,1183.0,1.9,2.3,9.96,7.72,15.36,2.84,27.81,80.0-90.0
80.0,281.0,4.04,6.44,15.44,11.9,-26.24,12.28,27.8,80.0-90.0
80.0,428.0,-2.66,-3.66,8.74,-8.72,-10.87,-4.99,27.8,80.0-90.0
80.0,1749.0,1.24,3.59,10.0,9.75,13.01,4.38,27.8,80.0-90.0
80.0,0.0,4.55,5.77,15.14,11.06,-25.96,11.38,27.79,80.0-90.0
80.0,662.0,-1.73,-4.76,8.36,-10.38,-8.87,-6.38,27.82,80.0-90.0
80.0,2551.0,-3.97,-5.26,6.22,-12.03,20.0,-9.72,27.79,80.0-90.0
80.0,0.0,3.88,5.25,14.62,9.87,-25.11,10.64,27.79,80.0-90.0
80.0,1291.0,-1.27,-5.61,7.77,-11.05,-3.84,-7.71,27.8,80.0-90.0
80.0,2857.0,-3.56,-4.69,7.22,-11.39,18.3,-8.73,27.77,80.0-90.0
80.0,0.0,-0.26,6.14,10.44,13.18,5.32,8.12,27.79,80.0-90.0
80.0,1801.0,-0.85,-6.25,7.12,-11.48,1.06,-9.12,27.81,80.0-90.0
80.0,1535.0,-2.04,-4.14,8.19,-10.44,15.07,-7.54,27.82,80.0-90.0
80.0,627.0,-0.78,6.97,10.8,14.03,0.04,9.49,27.79,80.0-90.0
80.0,1396.0,1.64,3.62,12.69,6.53,-19.95,7.08,27.79,80.0-90.0
80.0,389.0,-1.2,-3.6,8.91,-8.69,15.39,-6.26,27.79,80.0-90.0
80.0,1125.0,-0.45,7.47,11.53,14.09,-5.44,10.74,27.81,80.0-90.0
80.0,1345.0,-0.2,2.95,12.01,4.65,-17.94,5.75,27.8,80.0-90.0
80.0,592.0,-1.41,-7.08,5.45,-11.94,14.44,-11.57,27.8,80.0-90.0
80.0,2188.0,0.37,7.74,12.44,14.08,-11.59,11.76,27.8,80.0-90.0
80.0,1292.0,-1.48,2.11,11.44,2.44,-17.36,4.03,27.79,80.0-90.0
80.0,772.0,-1.99,-7.16,4.99,-11.78,19.19,-12.37,27.8,80.0-90.0
80.0,1318.0,2.45,-1.95,9.79,-3.18,13.59,-2.96,27.79,80.0-90.0
80.0,1469.0,-2.84,1.18,10.81,0.03,-16.78,2.27,27.82,80.0-90.0
80.0,817.0,-2.37,-7.21,4.38,-12.06,22.67,-12.71,27.8,80.0-90.0
80.0,2688.0,2.62,-0.93,10.01,-0.31,14.55,-1.34,27.81,80.0-90.0
80.0,806.0,2.12,7.66,14.6,13.33,-23.49,13.29,27.8,80.0-90.0
80.0,483.0,-3.37,-6.95,3.98,-12.0,24.91,-12.47,27.82,80.0-90.0
80.0,1847.0,2.72,0.12,10.02,2.48,14.69,0.18,27.78,80.0-90.0
80.0,0.0,2.82,7.39,15.08,13.01,-24.96,13.15,27.82,80.0-90.0
80.0,1426.0,-3.58,-1.51,9.5,-5.51,-13.95,-1.95,27.81,80.0-90.0
80.0,2315.0,2.35,1.35,10.02,5.49,15.28,1.53,27.82,80.0-90.0
80.0,0.0,3.85,6.84,15.42,12.45,-26.21,12.68,27.81,80.0-90.0
80.0,1471.0,-3.36,-2.58,8.91,-7.31,-12.38,-3.65,27.83,80.0-90.0
80.0,1876.0,-4.54,-5.99,4.68,-12.07,24.18,-11.35,27.82,80.0-90.0
80.0,471.0,4.52,6.21,15.3,11.67,-26.3,12.12,27.8,80.0-90.0
80.0,261.0,-2.74,-3.68,8.41,-8.81,-9.68,-5.05,27.79,80.0-90.0
80.0,2707.0,-4.4,-5.59,5.57,-12.11,22.35,-10.47,27.81,80.0-90.0
80.0,250.0,0.6,4.47,10.08,11.1,11.41,5.58,27.79,80.0-90.0
80.0,2256.0,-2.05,-4.84,7.97,-10.24,-6.62,-6.73,27.79,80.0-90.0
80.0,1343.0,-3.94,-5.0,6.47,-11.82,20.09,-9.51,27.83,80.0-90.0
80.0,1962.0,-0.62,5.53,10.2,12.54,8.61,6.91,27.77,80.0-90.0
80.0,2214.0,3.68,4.82,14.05,9.29,-22.56,9.48,27.81,80.0-90.0
80.0,2118.0,-3.13,-4.54,7.63,-11.33,16.93,-8.45,27.8,80.0-90.0
80.0,2089.0,-0.3,6.41,10.67,13.53,2.77,8.65,27.78,80.0-90.0
80.0,2626.0,2.53,4.21,13.21,7.82,-21.64,8.42,27.8,80.0-90.0
80.0,189.0,-0.75,-6.59,6.61,-11.53,5.32,-10.03,27.82,80.0-90.0
80.0,2306.0,-0.9,7.08,11.0,14.02,-1.81,9.99,27.82,80.0-90.0
80.0,1387.0,1.06,3.43,12.62,5.99,-19.72,6.84,27.81,80.0-90.0
80.0,0.0,-1.2,-6.94,5.84,-11.77,10.87,-11.08,27.79,80.0-90.0
80.0,2896.0,0.16,-3.23,9.58,-7.54,13.16,-5.22,27.8,80.0-90.0
80.0,500.0,-0.67,2.77,11.91,4.16,-18.06,5.13,27.79,80.0-90.0
80.0,1598.0,-1.54,-7.09,5.36,-11.66,16.32,-12.01,27.81,80.0-90.0
80.0,2927.0,1.33,-2.48,10.01,-5.09,12.84,-3.83,27.82,80.0-90.0
80.0,193.0,0.7,7.89,13.09,14.19,-15.88,12.33,27.81,80.0-90.0
80.0,390.0,-2.27,-7.09,4.55,-11.72,20.68,-12.39,27.81,80.0-90.0
80.0,1966.0,2.38,-1.67,10.25,-2.4,13.42,-2.29,27.83,80.0-90.0
80.0,0.0,1.26,7.88,13.97,13.71,-20.2,12.95,27.8,80.0-90.0
80.0,699.0,-3.26,0.39,10.43,-1.78,-16.14,1.24,27.78,80.0-90.0
80.0,2755.0,2.88,-0.74,10.36,0.36,13.56,-0.81,27.8,80.0-90.0
80.0,473.0,2.22,7.57,14.6,13.07,-23.86,13.17,27.82,80.0-90.0
80.0,2062.0,-3.61,-0.65,9.9,-4.14,-15.6,-0.63,27.79,80.0-90.0
80.0,2417.0,-3.86,-6.8,3.81,-11.92,26.33,-12.59,27.82,80.0-90.0
80.0,1156.0,3.08,7.23,15.26,12.69,-25.99,12.97,27.82,80.0-90.0
80.0,2491.0,-3.44,-1.75,9.35,-6.02,-13.99,-2.29,27.81,80.0-90.0
80.0,2424.0,-4.1,-6.52,4.2,-12.29,25.44,-12.07,27.8,80.0-90.0
80.0,2083.0,1.99,2.26,10.24,7.43,14.56,2.82,27.79,80.0-90.0
80.0,2544.0,-2.92,-3.02,9.02,-8.14,-12.69,-3.86,27.82,80.0-90.0
80.0,1770.0,-4.54,-6.02,4.79,-12.32,24.22,-11.14,27.81,80.0-90.0
80.0,2559.0,1.35,3.5,10.13,9.61,13.04,4.43,27.81,80.0-90.0
80.0,2003.0,-2.51,-4.17,8.41,-9.51,-8.69,-5.63,27.83,80.0-90.0
80.0,1393.0,-4.19,-5.55,5.68,-12.17,22.45,-10.51,27.8,80.0-90.0
80.0,2228.0,0.51,4.73,10.13,11.59,11.09,5.81,27.81,80.0-90.0
80.0,1858.0,4.33,5.32,14.47,10.37,-24.16,10.41,27.82,80.0-90.0
80.0,1123.0,-3.76,-4.95,6.55,-11.54,19.95,-9.41,27.83,80.0-90.0
80.0,2319.0,-0.01,5.7,10.41,12.74,7.04,7.26,27.82,80.0-90.0
80.0,1143.0,3.43,4.73,13.71,9.24,-22.41,9.32,27.81,80.0-90.0
80.0,1009.0,-1.12,-6.29,6.88,-11.66,1.64,-9.03,27.81,80.0-90.0
80.0,2927.0,-0.29,6.54,10.8,13.48,2.1,8.85,27.82,80.0-90.0
80.0,585.0,1.93,4.17,13.11,7.72,-20.55,8.07,27.79,80.0-90.0
80.0,1878.0,-0.89,-6.68,6.29,-11.65,7.09,-10.28,27.8,80.0-90.0
80.0,2928.0,-1.11,-3.55,8.82,-8.76,15.01,-6.3,27.82,80.0-90.0
80.0,0.0,0.72,3.4,12.43,5.81,-19.17,6.33,27.81,80.0-90.0
80.0,1774.0,-0.98,-6.95,5.76,-11.85,11.94,-11.44,27.81,80.0-90.0
80.0,2801.0,0.42,-3.08,9.41,-7.01,13.86,-5.04,27.79,80.0-90.0
80.0,350.0,-0.25,7.86,12.52,14.17,-11.82,11.87,27.81,80.0-90.0
80.0,1855.0,-1.48,-7.09,5.06,-11.82,17.26,-12.02,27.8,80.0-90.0
80.0,1997.0,1.71,-2.43,9.75,-4.63,13.76,-3.46,27.82,80.0-90.0
80.0,1009.0,0.42,7.99,13.35,14.14,-16.58,12.85,27.81,80.0-90.0
80.0,2141.0,-2.27,1.18,10.8,0.41,-16.53,2.62,27.79,80.0-90.0
80.0,2212.0,2.36,-1.56,9.87,-1.81,14.27,-2.2,27.81,80.0-90.0
80.0,1229.0,1.45,7.86,14.34,13.59,-21.6,13.05,27.81,80.0-90.0
80.0,2103.0,-3.09,0.22,10.21,-1.96,-16.0,0.6,27.81,80.0-90.0
80.0,1346.0,-3.46,-6.97,4.01,-12.06,24.36,-12.71,27.81,80.0-90.0
80.0,1159.0,2.52,7.53,14.93,13.04,-24.79,13.09,27.81,80.0-90.0
80.0,2514.0,-3.62,-0.95,9.58,-4.32,-14.81,-0.92,27.81,80.0-90.0
80.0,733.0,-4.1,-6.62,4.05,-11.95,25.64,-12.16,27.82,80.0-90.0
80.0,1794.0,2.66,1.12,10.14,5.14,14.88,1.75,27.8,80.0-90.0
80.0,2018.0,-3.53,-1.93,9.07,-6.23,-12.99,-2.3,27.79,80.0-90.0
80.0,659.0,-4.48,-6.33,4.34,-12.24,25.17,-11.73,27.79,80.0-90.0
80.0,1899.0,1.93,2.48,9.9,7.94,15.34,2.98,27.8,80.0-90.0
80.0,569.0,4.04,6.31,15.53,11.74,-26.79,12.15,27.82,80.0-90.0
80.0,1143.0,-4.42,-5.92,5.05,-12.18,23.46,-11.28,27.82,80.0-90.0
80.0,2126.0,1.27,3.79,9.99,9.91,12.64,4.52,27.8,80.0-90.0
80.0,695.0,4.64,5.72,15.13,10.97,-26.63,11.44,27.8,80.0-90.0
80.0,0.0,-1.71,-4.83,8.21,-10.46,-7.84,-6.44,27.8,80.0-90.0
80.0,2001.0,0.56,4.93,10.15,11.62,10.09,6.36,27.8,80.0-90.0
80.0,0.0,3.88,5.17,14.5,10.04,-24.99,10.6,27.8,80.0-90.0
80.0,365.0,-1.19,-5.7,7.52,-11.21,-2.59,-7.89,27.79,80.0-90.0
80.0,2389.0,-3.03,-4.65,7.24,-11.13,17.86,-8.59,27.78,80.0-90.0
80.0,0.0,3.18,4.45,13.79,8.66,-22.68,8.99,27.79,80.0-90.0
80.0,1520.0,-1.13,-6.3,7.1,-11.74,2.28,-9.57,27.8,80.0-90.0
80.0,1983.0,-2.12,-4.17,8.33,-9.98,16.18,-7.52,27.78,80.0-90.0
80.0,0.0,-0.67,7.1,11.19,14.17,-1.06,9.75,27.82,80.0-90.0
80.0,1382.0,-0.85,-6.86,6.37,-12.06,7.22,-10.64,27.8,80.0-90.0
80.0,1958.0,-0.7,-3.55,8.95,-8.35,14.79,-5.98,27.8,80.0-90.0
80.0,555.0,-0.31,7.59,11.96,14.28,-7.38,11.22,27.79,80.0-90.0
80.0,1487.0,-0.53,2.76,11.72,4.22,-17.71,5.36,27.81,80.0-90.0
80.0,1088.0,0.51,-2.87,9.62,-6.32,13.74,-4.46,27.81,80.0-90.0
80.0,1018.0,0.12,7.88,12.71,14.35,-12.63,12.08,27.81,80.0-90.0
80.0,2466.0,-1.9,1.85,11.13,1.99,-16.87,3.49,27.82,80.0-90.0
80.0,963.0,-1.88,-7.1,4.77,-11.97,19.9,-12.54,27.78,80.0-90.0
80.0,1511.0,0.73,7.97,13.66,13.87,-17.92,12.5,27.79,80.0-90.0
80.0,1687.0,-2.93,0.9,10.51,-0.37,-16.35,1.89,27.82,80.0-90.0
80.0,529.0,-2.51,-7.11,4.26,-11.95,23.22,-12.68,27.82,80.0-90.0
80.0,1110.0,2.7,-0.75,9.96,0.3,14.63,-1.13,27.8,80.0-90.0
80.0,301.0,-3.42,-0.01,9.85,-2.55,-15.48,0.49,27.79,80.0-90.0
80.0,640.0,-3.31,-6.95,4.06,-11.92,25.47,-12.57,27.81,80.0-90.0
80.0,1745.0,2.63,0.38,10.12,3.15,14.82,0.49,27.8,80.0-90.0
80.0,208.0,3.44,7.22,15.33,12.69,-26.5,13.08,27.83,80.0-90.0
80.0,1680.0,-4.22,-6.65,4.08,-12.23,26.12,-12.36,27.81,80.0-90.0
80.0,2483.0,2.34,1.64,10.02,5.95,15.17,1.92,27.81,80.0-90.0
80.0,425.0,3.78,6.69,15.32,12.1,-27.02,12.53,27.82,80.0-90.0
80.0,14.0,-3.0,-2.93,8.83,-7.79,-11.89,-4.01,27.8,80.0-90.0
80.0,1893.0,1.54,2.91,10.07,8.56,14.73,3.37,27.81,80.0-90.0
80.0,0.0,4.5,6.07,15.31,11.58,-26.8,11.95,27.82,80.0-90.0
80.0,997.0,-2.62,-4.02,8.35,-9.3,-8.8,-5.46,27.81,80.0-90.0
80.0,2224.0,-4.4,-5.46,5.66,-11.75,22.32,-10.31,27.81,80.0-90.0
80.0,0.0,4.39,5.59,14.8,10.94,-25.4,11.2,27.8,80.0-90.0
80.0,719.0,-2.66,-2.73,8.51,-3.85,6.28,-3.42,27.41,80.0-90.0
80.0,2832.0,0.02,3.83,10.06,7.75,-3.29,3.51,27.41,80.0-90.0
80.0,1718.0,-2.57,-1.9,7.85,0.5,9.73,-2.26,27.42,80.0-90.0
80.0,715.0,-0.43,1.21,9.29,-1.88,3.01,2.26,27.4,80.0-90.0
80.0,1077.0,-1.55,4.81,9.28,7.84,-3.01,4.65,27.41,80.0-90.0
80.0,1205.0,1.28,-2.37,9.04,-4.96,5.53,-1.21,27.42,80.0-90.0
80.0,2928.0,0.49,5.07,10.1,9.65,-4.95,5.11,27.42,80.0-90.0
80.0,955.0,-1.78,-2.76,8.3,-0.36,8.12,-4.61,27.43,80.0-90.0
80.0,1961.0,1.2,-2.47,9.22,-6.26,5.03,-3.54,27.42,80.0-90.0
80.0,2230.0,-1.18,-0.03,9.11,4.27,-0.62,-0.53,27.42,80.0-90.0
80.0,1675.0,0.06,-7.0,11.12,-14.87,1.46,-7.68,27.43,80.0-90.0
80.0,1648.0,1.3,5.25,11.25,6.63,-8.48,6.7,27.41,80.0-90.0
80.0,795.0,-2.01,1.68,9.65,6.36,-3.67,3.11,27.43,80.0-90.0
80.0,2642.0,0.63,1.28,8.63,-1.71,5.38,2.09,27.43,80.0-90.0
80.0,2384.0,1.38,6.6,10.5,14.72,-6.95,9.52,27.43,80.0-90.0
80.0,922.0,-1.74,-5.53,8.75,-8.32,2.51,-7.35,27.43,80.0-90.0
80.0,2397.0,1.06,-2.78,8.32,-7.21,9.59,-3.23,27.43,80.0-90.0
80.0,1849.0,-2.36,1.07,11.14,4.07,-9.93,0.32,27.44,80.0-90.0
80.0,1734.0,-2.57,-7.23,7.47,-15.97,10.52,-11.25,27.43,80.0-90.0
80.0,1642.0,0.65,4.65,9.51,7.21,8.7,4.82,27.43,80.0-90.0
80.0,1955.0,1.79,4.97,12.29,11.16,-15.91,7.14,27.41,80.0-90.0
80.0,2632.0,-1.05,-4.77,9.04,-10.56,11.74,-5.52,27.42,80.0-90.0
80.0,1394.0,0.34,7.38,12.13,13.03,-8.06,10.86,27.43,80.0-90.0
80.0,1904.0,-2.57,1.06,10.72,1.89,-12.87,2.09,27.42,80.0-90.0
80.0,2778.0,-2.77,-7.11,5.68,-13.69,16.93,-9.98,27.43,80.0-90.0
80.0,0.0,2.67,6.94,13.91,12.89,-19.65,10.83,27.43,80.0-90.0
80.0,1922.0,-2.0,-3.64,8.81,-6.2,-7.87,-4.64,27.42,80.0-90.0
80.0,2773.0,-3.56,-5.98,7.83,-12.88,15.37,-9.41,27.43,80.0-90.0
80.0,486.0,-0.28,6.74,10.47,11.48,3.27,6.91,27.4,80.0-90.0
80.0,1345.0,-1.1,-6.77,7.06,-10.95,5.13,-9.67,27.39,80.0-90.0
80.0,2928.0,0.43,-3.55,9.29,-8.7,11.83,-5.29,27.42,80.0-90.0
80.0,175.0,0.61,8.17,12.59,14.46,-12.4,12.37,27.42,80.0-90.0
80.0,1365.0,-2.91,0.67,10.54,1.43,-14.15,2.4,27.43,80.0-90.0
80.0,2928.0,2.76,-0.39,9.34,-0.57,13.91,0.21,27.44,80.0-90.0
80.0,546.0,2.62,7.71,14.3,14.41,-21.28,13.29,27.42,80.0-90.0
80.0,1634.0,-2.98,-2.24,9.37,-5.18,-11.94,-2.78,27.42,80.0-90.0
80.0,2928.0,-4.12,-6.34,5.43,-13.84,20.03,-11.81,27.41,80.0-90.0
80.0,719.0,3.66,6.21,14.87,13.22,-23.06,11.05,27.44,80.0-90.0
80.0,1766.0,-1.62,-5.09,8.42,-10.38,-7.48,-7.51,27.43,80.0-90.0
80.0,2927.0,-3.44,-5.14,7.46,-12.35,16.61,-9.6,27.43,80.0-90.0
80.0,230.0,-0.42,6.45,10.13,13.58,5.39,8.82,27.44,80.0-90.0
80.0,2032.0,-0.88,-6.64,7.34,-12.43,2.42,-9.69,27.42,80.0-90.0
80.0,2928.0,-0.93,-3.86,8.83,-9.21,13.5,-5.51,27.43,80.0-90.0
80.0,0.0,-0.29,7.91,11.44,14.9,-5.17,11.98,27.42,80.0-90.0
80.0,2032.0,-1.2,2.34,11.7,3.79,-16.9,4.59,27.41,80.0-90.0
80.0,1584.0,1.65,-2.52,9.5,-4.55,13.04,-3.23,27.41,80.0-90.0
80.0,656.0,1.2,8.07,13.19,14.4,-16.5,12.3,27.43,80.0-90.0
80.0,2448.0,-3.07,0.43,10.63,-1.09,-15.62,0.52,27.44,80.0-90.0
80.0,2927.0,-2.99,-6.98,4.61,-12.49,22.21,-13.09,27.44,80.0-90.0
80.0,2171.0,2.42,7.69,14.59,13.8,-22.44,12.6,27.44,80.0-90.0
80.0,2434.0,-3.07,-1.59,9.73,-5.36,-14.64,-1.77,27.42,80.0-90.0
80.0,1101.0,-4.16,-6.43,4.39,-12.4,23.11,-11.35,27.42,80.0-90.0
80.0,2403.0,2.13,2.61,9.71,7.67,14.14,4.09,27.42,80.0-90.0
80.0,2202.0,-2.44,-3.39,8.8,-8.64,-10.87,-4.14,27.44,80.0-90.0
80.0,2190.0,-4.17,-5.76,5.56,-12.32,20.61,-10.38,27.42,80.0-90.0
80.0,1703.0,0.36,4.76,9.66,11.19,11.71,6.0,27.43,80.0-90.0
80.0,2275.0,3.58,5.27,14.36,10.6,-22.15,9.58,27.42,80.0-90.0
80.0,2063.0,-3.53,-4.99,7.25,-11.51,17.1,-9.48,27.42,80.0-90.0
80.0,2213.0,-0.33,6.27,10.18,13.38,5.99,7.98,27.43,80.0-90.0
80.0,2927.0,1.88,4.17,13.24,8.3,-19.78,7.72,27.42,80.0-90.0
80.0,1193.0,-0.82,-6.76,6.82,-11.97,6.05,-10.35,27.4,80.0-90.0
80.0,2023.0,-0.37,7.41,11.12,14.49,-2.63,10.8,27.41,80.0-90.0
80.0,1385.0,0.29,3.02,12.21,5.32,-18.14,6.23,27.44,80.0-90.0
80.0,1522.0,-1.53,-6.91,5.92,-12.01,13.74,-11.26,27.43,80.0-90.0
80.0,2041.0,0.44,7.93,12.28,14.22,-11.82,12.27,27.42,80.0-90.0
80.0,1509.0,-1.83,1.68,11.27,1.61,-16.73,3.27,27.44,80.0-90.0
80.0,754.0,-2.38,-6.99,5.09,-11.95,19.63,-12.79,27.43,80.0-90.0
80.0,2493.0,2.54,-1.53,9.83,-1.3,14.0,-2.23,27.42,80.0-90.0
80.0,1111.0,-3.23,0.29,10.3,-1.84,-15.86,0.47,27.43,80.0-90.0
80.0,1166.0,-3.34,-6.82,4.13,-11.89,23.83,-12.83,27.45,80.0-90.0
80.0,2928.0,2.8,0.04,9.88,2.85,14.4,0.53,27.43,80.0-90.0
80.0,630.0,3.22,7.34,15.22,13.07,-24.45,13.32,27.41,80.0-90.0
80.0,796.0,-4.03,-6.53,4.16,-12.21,23.73,-11.67,27.41,80.0-90.0
80.0,2928.0,2.48,1.81,9.8,6.63,14.92,3.01,27.44,80.0-90.0
80.0,70.0,3.69,6.62,15.64,11.85,-26.76,12.47,27.41,80.0-90.0
80.0,1777.0,-1.94,-3.64,8.7,-9.1,-11.67,-4.85,27.43,80.0-90.0
80.0,1842.0,0.92,3.68,9.76,9.79,13.97,4.43,27.44,80.0-90.0
80.0,0.0,3.95,5.83,15.06,11.23,-23.98,10.7,27.42,80.0-90.0
80.0,1601.0,-1.03,-5.07,7.97,-10.87,-6.55,-7.34,27.41,80.0-90.0
80.0,2183.0,-3.88,-4.98,6.93,-11.36,17.72,-9.25,27.43,80.0-90.0
80.0,0.0,3.31,4.89,14.15,9.56,-22.32,9.43,27.42,80.0-90.0
80.0,2559.0,-1.12,-6.16,7.23,-11.86,0.16,-8.7,27.43,80.0-90.0
80.0,1381.0,-2.39,-4.42,8.25,-10.24,15.39,-7.19,27.44,80.0-90.0
80.0,120.0,-0.55,6.98,10.76,13.67,-0.42,10.06,27.42,80.0-90.0
80.0,1968.0,-0.8,-6.77,6.74,-11.91,6.98,-10.28,27.43,80.0-90.0
80.0,1808.0,-0.55,-3.77,9.4,-8.2,12.58,-5.78,27.42,80.0-90.0
80.0,962.0,0.08,7.65,11.59,14.19,-8.11,11.12,27.44,80.0-90.0
80.0,1110.0,-1.08,2.37,11.81,3.24,-17.57,4.1,27.41,80.0-90.0
80.0,2039.0,0.86,-2.81,9.96,-5.15,12.98,-4.29,27.42,80.0-90.0
80.0,1440.0,0.84,7.97,13.05,14.09,-15.45,12.37,27.42,80.0-90.0
80.0,2127.0,-2.77,1.18,10.77,0.04,-16.41,2.49,27.42,80.0-90.0
80.0,1489.0,-2.83,-7.0,4.55,-11.8,22.71,-12.36,27.42,80.0-90.0
80.0,1279.0,1.8,7.96,13.99,13.59,-20.9,13.43,27.43,80.0-90.0
80.0,1744.0,-3.33,-0.19,10.14,-3.26,-15.8,0.37,27.41,80.0-90.0
80.0,0.0,-3.69,-6.74,4.02,-11.82,24.71,-12.33,27.43,80.0-90.0
80.0,1738.0,2.95,0.51,9.97,4.07,14.72,1.05,27.42,80.0-90.0
80.0,2467.0,-3.14,-1.62,9.26,-5.94,-13.85,-2.33,27.42,80.0-90.0
80.0,912.0,-4.41,-6.31,4.06,-11.8,24.47,-12.24,27.42,80.0-90.0
80.0,2069.0,1.85,2.39,9.69,7.78,15.14,2.84,27.41,80.0-90.0
80.0,1233.0,3.85,6.42,15.37,11.99,-25.34,11.86,27.42,80.0-90.0
80.0,0.0,-4.38,-5.78,5.05,-11.88,22.22,-10.88,27.42,80.0-90.0
80.0,1009.0,0.77,4.05,9.84,10.45,12.98,5.52,27.43,80.0-90.0
80.0,293.0,3.68,5.62,14.96,10.77,-23.77,10.96,27.43,80.0-90.0
80.0,390.0,-1.16,-5.39,7.83,-11.21,-5.26,-7.31,27.42,80.0-90.0
80.0,1962.0,0.32,5.61,10.11,12.63,7.77,7.71,27.43,80.0-90.0
80.0,132.0,2.96,4.76,13.81,9.23,-21.81,9.02,27.41,80.0-90.0
80.0,729.0,-0.68,-6.35,7.22,-11.72,1.9,-9.67,27.41,80.0-90.0
80.0,2427.0,-1.86,-4.22,8.6,-9.74,14.56,-7.29,27.4,80.0-90.0
80.0,0.0,1.35,3.7,12.85,6.86,-19.43,6.79,27.42,80.0-90.0
80.0,823.0,-1.1,-6.84,6.41,-11.86,9.54,-11.08,27.42,80.0-90.0
80.0,1881.0,-0.05,-3.44,9.39,-7.24,13.5,-5.16,27.42,80.0-90.0
80.0,235.0,0.12,7.89,12.08,14.31,-9.91,11.98,27.42,80.0-90.0
80.0,2096.0,-1.72,-7.03,5.63,-12.01,15.98,-11.78,27.41,80.0-90.0
80.0,1566.0,1.63,-2.46,9.77,-4.08,13.48,-3.28,27.43,80.0-90.0
80.0,95.0,1.32,8.06,13.44,13.74,-18.1,12.82,27.42,80.0-90.0
80.0,1272.0,-2.82,0.82,10.6,-0.87,-16.27,1.63,27.44,80.0-90.0
80.0,864.0,2.5,-1.25,10.03,-0.49,13.65,-1.68,27.42,80.0-90.0
80.0,867.0,2.31,7.84,14.6,13.56,-22.74,12.89,27.42,80.0-90.0
80.0,1625.0,-3.27,-0.61,9.87,-4.17,-15.77,-0.78,27.4,80.0-90.0
80.0,1392.0,-3.87,-6.72,4.19,-11.83,25.05,-12.59,27.43,80.0-90.0
80.0,895.0,3.0,7.32,15.59,12.86,-26.16,13.09,27.4,80.0-90.0
80.0,889.0,-2.94,-2.15,9.1,-7.02,-14.17,-2.52,27.42,80.0-90.0
80.0,992.0,-4.76,-6.22,4.4,-12.01,24.19,-11.58,27.42,80.0-90.0
80.0,753.0,1.98,2.85,9.91,8.56,13.47,3.94,27.4,80.0-90.0
80.0,1340.0,-2.44,-3.58,8.33,-9.04,-9.94,-4.93,27.44,80.0-90.0
80.0,0.0,-4.33,-5.73,5.51,-11.97,21.13,-10.67,27.41,80.0-90.0
80.0,1047.0,0.43,4.54,9.86,11.15,11.63,5.77,27.41,80.0-90.0
80.0,1182.0,3.68,5.29,14.69,10.19,-23.67,10.12,27.43,80.0-90.0
80.0,0.0,-3.73,-5.09,6.82,-11.4,18.61,-9.4,27.39,80.0-90.0
80.0,1838.0,-0.16,5.94,10.27,12.92,6.77,7.86,27.42,80.0-90.0
80.0,461.0,2.36,4.52,13.48,8.6,-20.96,8.56,27.42,80.0-90.0
80.0,0.0,-0.51,-6.57,7.0,-11.89,3.58,-9.72,27.42,80.0-90.0
80.0,1195.0,-0.36,7.06,10.87,13.97,-0.25,9.92,27.41,80.0-90.0
80.0,693.0,0.76,3.57,12.42,6.46,-18.7,6.85,27.42,80.0-90.0
80.0,623.0,-0.85,-6.92,6.18,-11.94,10.66,-11.09,27.42,80.0-90.0
80.0,2928.0,0.18,-3.2,9.59,-6.44,13.47,-4.84,27.41,80.0-90.0
80.0,343.0,-0.92,2.56,11.68,3.64,-17.4,4.58,27.43,80.0-90.0
80.0,1040.0,-2.0,-7.0,5.24,-11.83,17.66,-12.22,27.41,80.0-90.0
80.0,1575.0,2.11,-2.21,9.8,-3.22,14.21,-3.19,27.41,80.0-90.0
80.0,0.0,1.25,8.18,13.52,13.99,-18.35,12.86,27.42,80.0-90.0
80.0,1895.0,-2.98,-7.05,4.64,-11.98,22.32,-12.71,27.39,80.0-90.0
80.0,1680.0,2.55,-0.94,9.87,0.48,15.02,-1.04,27.42,80.0-90.0
80.0,0.0,2.34,7.81,14.9,13.16,-23.93,13.43,27.41,80.0-90.0
80.0,2196.0,-3.3,-0.93,9.57,-4.77,-15.45,-0.95,27.41,80.0-90.0
80.0,1633.0,2.74,0.44,9.91,4.13,15.75,0.92,27.44,80.0-90.0
80.0,288.0,3.24,7.38,15.51,12.86,-26.19,13.11,27.42,80.0-90.0
80.0,1699.0,-3.15,-2.36,8.89,-7.16,-12.57,-3.23,27.43,80.0-90.0
80.0,2374.0,-4.49,-6.13,4.61,-11.89,24.09,-11.64,27.41,80.0-90.0
80.0,0.0,3.88,6.55,15.72,12.02,-26.28,12.3,27.4,80.0-90.0
80.0,1863.0,-2.23,-3.85,8.57,-9.59,-11.02,-5.2,27.42,80.0-90.0
80.0,1873.0,-4.3,-5.67,5.39,-11.77,21.89,-10.65,27.43,80.0-90.0
80.0,1200.0,0.51,4.42,9.99,11.1,11.94,5.77,27.43,80.0-90.0
80.0,1696.0,-1.36,-5.19,8.03,-10.99,-6.8,-7.16,27.43,80.0-90.0
80.0,1063.0,-3.61,-5.04,6.51,-11.02,19.48,-9.32,27.42,80.0-90.0
80.0,1584.0,0.13,5.71,10.48,12.72,6.1,7.64,27.41,80.0-90.0
80.0,1599.0,2.45,4.76,13.61,9.06,-21.05,9.02,27.42,80.0-90.0
80.0,776.0,-2.5,-4.36,8.03,-10.17,15.71,-7.69,27.44,80.0-90.0
80.0,2608.0,-0.17,6.88,10.85,13.93,0.37,9.61,27.43,80.0-90.0
80.0,1447.0,1.32,3.82,12.76,6.82,-19.75,7.17,27.43,80.0-90.0
80.0,76.0,-0.98,-6.77,6.27,-11.78,9.42,-10.96,27.41,80.0-90.0
80.0,2159.0,0.05,7.53,11.69,13.93,-7.16,11.03,27.41,80.0-90.0
80.0,422.0,-0.4,2.73,11.84,4.02,-18.15,5.1,27.42,80.0-90.0
80.0,0.0,-1.7,-7.05,5.58,-11.86,16.2,-12.01,27.42,80.0-90.0
80.0,1497.0,1.48,-2.62,9.76,-4.48,13.62,-3.74,27.43,80.0-90.0
80.0,107.0,-2.14,1.64,10.88,1.14,-16.67,3.1,27.4,80.0-90.0
80.0,998.0,-2.47,-7.0,4.91,-11.65,21.09,-12.44,27.42,80.0-90.0
80.0,2199.0,2.68,-1.59,9.93,-1.21,13.74,-1.92,27.41,80.0-90.0
80.0,0.0,1.8,8.02,14.24,13.61,-21.72,13.28,27.42,80.0-90.0
80.0,958.0,-3.39,-6.9,4.3,-11.68,24.28,-12.57,27.42,80.0-90.0
80.0,2039.0,2.92,-0.26,9.94,2.27,14.92,-0.12,27.44,80.0-90.0
80.0,729.0,3.09,7.51,15.45,12.8,-26.13,13.24,27.43,80.0-90.0
80.0,695.0,-3.31,-1.61,9.29,-6.03,-15.36,-1.98,27.41,80.0-90.0
80.0,2926.0,2.72,1.08,10.19,5.44,14.34,1.72,27.4,80.0-90.0
80.0,0.0,3.42,7.0,15.66,12.29,-27.05,12.68,27.41,80.0-90.0
80.0,2393.0,-2.49,-2.98,8.85,-8.26,-12.63,-3.95,27.42,80.0-90.0
80.0,2926.0,-4.72,-5.87,4.72,-11.74,23.26,-11.03,27.42,80.0-90.0
80.0,1171.0,3.95,6.23,15.33,11.48,-25.78,11.92,27.41,80.0-90.0
80.0,2114.0,-2.12,-4.3,8.15,-9.97,-8.23,-5.84,27.44,80.0-90.0
80.0,1697.0,-4.27,-5.39,5.9,-11.56,20.96,-10.01,27.42,80.0-90.0
80.0,657.0,-0.02,5.03,9.99,11.91,10.15,6.59,27.43,80.0-90.0
80.0,1922.0,-1.08,-5.5,7.71,-11.14,-4.42,-7.84,27.43,80.0-90.0
80.0,1488.0,-3.28,-4.83,7.22,-10.96,18.0,-8.96,27.43,80.0-90.0
80.0,1899.0,-0.36,6.18,10.43,13.25,5.09,8.3,27.43,80.0-90.0
80.0,2875.0,2.02,4.4,13.33,8.17,-20.61,8.12,27.42,80.0-90.0
80.0,1230.0,-1.85,-4.22,8.4,-9.68,15.1,-7.11,27.4,80.0-90.0
80.0,2687.0,-0.25,7.22,11.04,14.09,-1.82,10.27,27.42,80.0-90.0
80.0,1999.0,0.76,3.51,12.38,6.1,-19.1,6.7,27.41,80.0-90.0
80.0,546.0,-1.1,-6.96,5.97,-11.89,11.91,-11.2,27.42,80.0-90.0
80.0,2809.0,0.2,7.73,11.96,13.94,-10.03,11.61,27.42,80.0-90.0
80.0,2799.0,-1.01,2.33,11.58,3.05,-17.65,4.43,27.42,80.0-90.0
80.0,2017.0,-2.12,-7.1,5.14,-11.74,18.82,-12.33,27.41,80.0-90.0
80.0,2829.0,2.24,-2.3,9.93,-3.48,13.53,-3.17,27.43,80.0-90.0
80.0,1513.0,-2.41,1.17,10.88,-0.07,-17.04,2.4,27.4,80.0-90.0
80.0,1033.0,-2.46,-7.07,4.43,-11.59,22.67,-12.63,27.42,80.0-90.0
80.0,2927.0,2.66,-1.18,10.24,-0.25,13.8,-1.37,27.41,80.0-90.0
80.0,958.0,2.51,7.76,14.81,13.42,-23.67,13.24,27.41,80.0-90.0
80.0,1729.0,-3.72,-6.79,3.87,-11.48,25.32,-12.45,27.42,80.0-90.0
80.0,2903.0,2.93,0.09,10.4,3.03,13.63,0.5,27.4,80.0-90.0
80.0,91.0,3.09,7.41,15.31,12.74,-26.38,13.26,27.43,80.0-90.0
80.0,1122.0,-3.03,-1.93,9.21,-6.61,-14.26,-2.5,27.41,80.0-90.0
80.0,2928.0,1.98,1.59,9.93,6.59,15.88,1.95,27.39,80.0-90.0
80.0,795.0,3.76,6.77,15.56,11.88,-26.39,12.5,27.41,80.0-90.0
80.0,1423.0,-2.18,-3.26,8.64,-8.64,-12.22,-4.39,27.4,80.0-90.0
80.0,2928.0,-4.63,-5.74,4.88,-11.69,23.44,-10.97,27.42,80.0-90.0
80.0,357.0,4.01,6.14,15.26,11.18,-25.89,11.72,27.41,80.0-90.0
80.0,1409.0,-2.24,-4.42,8.03,-10.17,-7.5,-6.15,27.42,80.0-90.0
80.0,2250.0,-3.89,-5.31,5.92,-11.56,21.0,-9.81,27.43,80.0-90.0
80.0,1364.0,-0.13,5.11,10.23,11.87,9.3,6.77,27.4,80.0-90.0
80.0,2709.0,-1.19,-5.68,7.67,-11.36,-3.84,-7.84,27.42,80.0-90.0
80.0,1751.0,-3.27,-4.75,7.46,-11.02,17.72,-8.73,27.43,80.0-90.0
80.0,2061.0,-0.59,6.2,10.42,13.27,4.48,8.36,27.42,80.0-90.0
80.0,2690.0,2.41,4.35,13.37,7.79,-21.2,8.1,27.42,80.0-90.0
80.0,1602.0,-2.02,-4.16,8.61,-9.62,15.37,-7.37,27.39,80.0-90.0
80.0,2237.0,-0.37,7.06,11.13,14.09,-2.11,10.13,27.41,80.0-90.0
80.0,1959.0,0.47,3.5,12.41,5.66,-19.04,6.45,27.42,80.0-90.0
80.0,482.0,-1.14,-6.95,5.76,-11.45,12.64,-11.2,27.42,80.0-90.0
80.0,1574.0,-0.11,7.76,11.76,14.6,-8.78,11.67,27.44,80.0-90.0
80.0,1783.0,-0.76,2.5,11.77,3.26,-17.91,4.79,27.41,80.0-90.0
80.0,1379.0,-1.61,-7.08,5.08,-11.63,18.27,-12.1,27.4,80.0-90.0
80.0,2927.0,1.84,-2.4,10.32,-3.82,12.72,-3.28,27.42,80.0-90.0
80.0,1453.0,-2.52,1.31,10.98,0.3,-16.85,2.47,27.41,80.0-90.0
80.0,1089.0,-2.34,-7.12,4.48,-11.65,22.56,-12.83,27.4,80.0-90.0
80.0,2198.0,2.64,-1.36,10.37,-0.71,13.74,-1.88,27.41,80.0-90.0
80.0,537.0,2.44,7.75,14.65,13.25,-23.86,13.23,27.44,80.0-90.0
80.0,608.0,-3.43,-6.92,3.87,-11.46,25.66,-12.56,27.42,80.0-90.0
80.0,2779.0,2.75,-0.06,10.49,2.65,13.6,0.37,27.43,80.0-90.0
80.0,818.0,3.29,7.43,15.2,12.86,-25.86,13.5,27.4,80.0-90.0
80.0,1499.0,-3.48,-1.62,9.43,-6.35,-14.63,-2.06,27.41,80.0-90.0
80.0,1662.0,2.61,1.3,10.37,5.87,13.92,2.08,27.42,80.0-90.0
80.0,36.0,3.57,6.91,15.73,11.82,-27.79,12.71,27.42,80.0-90.0
80.0,1517.0,-2.69,-3.15,8.76,-8.61,-12.63,-4.32,27.42,80.0-90.0
80.0,2220.0,-4.32,-5.92,4.77,-11.74,23.86,-11.34,27.43,80.0-90.0
80.0,33.0,4.03,6.25,15.35,11.33,-26.1,11.75,27.42,80.0-90.0
80.0,2242.0,-2.0,-4.5,8.23,-10.15,-8.71,-6.09,27.44,80.0-90.0
80.0,1734.0,-4.0,-5.39,5.94,-11.88,20.19,-9.93,27.41,80.0-90.0
80.0,467.0,0.31,5.09,10.12,12.26,9.32,6.82,27.42,80.0-90.0
80.0,2645.0,-1.1,-5.52,7.49,-11.07,-3.62,-7.63,27.42,80.0-90.0
80.0,2046.0,-3.31,-4.69,7.19,-11.17,17.68,-8.54,27.4,80.0-90.0
80.0,626.0,-0.36,6.19,10.38,13.42,4.58,8.32,27.4,80.0-90.0
80.0,2037.0,-1.05,-6.36,6.61,-11.56,3.04,-9.6,27.42,80.0-90.0
80.0,1042.0,-2.08,-4.15,8.45,-9.91,15.33,-7.51,27.42,80.0-90.0
80.0,2390.0,-0.37,7.03,10.81,14.05,-2.1,9.77,27.41,80.0-90.0
80.0,2450.0,0.95,3.51,12.7,5.66,-19.69,6.55,27.4,80.0-90.0
80.0,282.0,-0.69,-3.58,9.58,-8.12,13.3,-5.78,27.44,80.0-90.0
80.0,1952.0,-0.04,7.52,11.48,14.23,-8.06,11.54,27.42,80.0-90.0
80.0,2047.0,-0.92,2.57,11.86,3.31,-17.72,4.93,27.4,80.0-90.0
80.0,624.0,-1.54,-7.16,4.99,-11.53,18.38,-11.98,27.41,80.0-90.0
80.0,2374.0,0.65,7.9,12.62,14.06,-14.9,12.57,27.42,80.0-90.0
80.0,662.0,-2.41,1.55,10.97,0.68,-16.9,2.81,27.4,80.0-90.0
80.0,576.0,-2.18,-7.16,4.46,-11.59,22.45,-12.76,27.43,80.0-90.0
80.0,813.0,2.49,-1.39,10.36,-0.92,13.37,-2.04,27.42,80.0-90.0
80.0,683.0,-3.25,0.4,10.42,-2.19,-16.58,0.72,27.4,80.0-90.0
80.0,460.0,-3.29,-6.9,3.91,-11.57,25.34,-12.59,27.4,80.0-90.0
80.0,1968.0,2.87,-0.21,10.42,2.45,13.69,0.05,27.42,80.0-90.0
80.0,698.0,3.25,7.48,15.19,12.81,-25.8,13.53,27.42,80.0-90.0
80.0,942.0,-4.09,-6.53,3.89,-11.63,26.28,-12.04,27.42,80.0-90.0
80.0,1759.0,2.63,1.28,10.35,5.7,13.83,2.14,27.41,80.0-90.0
80.0,0.0,3.67,6.99,15.69,12.03,-27.5,13.09,27.42,80.0-90.0
80.0,721.0,-2.76,-3.2,8.82,-8.49,-12.41,-4.36,27.42,80.0-90.0
80.0,2598.0,1.23,2.93,10.14,9.03,14.23,3.51,27.41,80.0-90.0
80.0,0.0,3.99,6.25,15.36,11.33,-25.93,11.72,27.43,80.0-90.0
80.0,1063.0,-1.5,-4.57,8.03,-10.12,-8.71,-6.38,27.42,80.0-90.0
80.0,2013.0,-4.4,-5.17,6.2,-11.72,20.27,-9.77,27.44,80.0-90.0
80.0,38.0,3.99,5.53,14.67,10.11,-24.25,10.76,27.43,80.0-90.0
80.0,1584.0,-1.6,-5.6,7.17,-11.17,-2.4,-7.89,27.42,80.0-90.0
80.0,1808.0,-3.37,-4.61,7.46,-11.04,18.01,-8.36,27.43,80.0-90.0
80.0,653.0,-0.56,6.35,10.37,13.61,3.94,8.68,27.41,80.0-90.0
80.0,1872.0,-0.75,-6.52,6.67,-11.59,3.58,-9.64,27.41,80.0-90.0
80.0,400.0,-1.83,-3.97,8.82,-9.71,14.53,-6.99,27.42,80.0-90.0
80.0,1206.0,-0.29,7.23,10.83,14.48,-2.45,10.19,27.43,80.0-90.0
80.0,2102.0,0.43,3.45,12.53,5.44,-19.11,6.13,27.43,80.0-90.0
80.0,109.0,0.07,-3.31,9.54,-7.34,13.24,-5.37,27.43,80.0-90.0
80.0,778.0,0.01,7.77,12.04,14.34,-10.22,11.7,27.42,80.0-90.0
