Speed,Voice,Acceleration X,Acceleration Y,Acceleration Z,Gyro X,Gyro Y,Gyro Z,Temperature,Speed_Range
80.0,2091.0,-0.72,1.9,9.5,4.16,0.4,-0.6,27.92,80.0-90.0
80.0,784.0,1.83,-1.44,10.22,-3.97,-1.99,-0.03,27.93,80.0-90.0
80.0,0.0,-0.5,2.81,9.38,3.5,-1.06,1.21,27.9,80.0-90.0
80.0,1136.0,-0.8,-1.04,9.97,0.38,0.39,0.02,27.92,80.0-90.0
80.0,1493.0,0.38,1.14,9.68,-0.66,0.04,2.5,27.95,80.0-90.0
80.0,272.0,0.52,2.59,9.85,5.08,0.34,1.37,27.92,80.0-90.0
80.0,494.0,-0.55,-2.45,9.93,-2.14,2.14,-0.82,27.93,80.0-90.0
80.0,1615.0,1.69,-1.88,10.19,-5.33,-2.22,-0.34,27.92,80.0-90.0
80.0,346.0,-1.55,1.11,9.72,3.76,0.83,-1.39,27.92,80.0-90.0
80.0,1079.0,-1.11,-3.34,9.68,-5.01,2.16,-3.07,27.9,80.0-90.0
80.0,1375.0,1.08,-0.48,9.78,-3.58,-0.63,-0.49,27.91,80.0-90.0
80.0,381.0,0.88,4.39,9.7,7.9,-0.66,1.97,27.9,80.0-90.0
80.0,880.0,-1.67,-4.02,9.76,-7.5,0.51,-1.8,27.93,80.0-90.0
80.0,526.0,0.32,0.53,9.49,-2.22,0.39,1.91,27.92,80.0-90.0
80.0,1073.0,0.96,4.7,9.74,8.69,0.68,3.74,27.91,80.0-90.0
80.0,833.0,0.33,-1.16,10.68,-0.05,-2.22,0.06,27.93,80.0-90.0
80.0,696.0,-0.24,1.03,9.15,-0.94,1.53,1.56,27.93,80.0-90.0
80.0,2266.0,1.74,4.62,9.94,8.77,1.2,2.2,27.94,80.0-90.0
80.0,297.0,0.75,-0.56,10.93,0.51,-2.71,-1.72,27.93,80.0-90.0
80.0,1381.0,-2.1,-4.24,9.14,-8.32,-0.82,-4.03,27.92,80.0-90.0
80.0,1798.0,2.87,4.05,10.58,8.37,0.37,1.86,27.94,80.0-90.0
80.0,720.0,0.8,0.74,10.7,1.96,-4.71,0.21,27.9,80.0-90.0
80.0,2123.0,-2.63,-3.75,8.98,-7.02,0.97,-2.3,27.9,80.0-90.0
80.0,1121.0,-0.18,-2.01,9.8,-3.5,4.08,-0.11,27.89,80.0-90.0
80.0,2925.0,-1.08,2.72,9.29,5.12,-2.5,3.1,27.92,80.0-90.0
80.0,861.0,-1.11,-2.38,9.59,-3.97,3.47,-1.39,27.92,80.0-90.0
80.0,1456.0,0.26,-3.21,10.85,-5.68,0.31,-1.71,27.92,80.0-90.0
80.0,2926.0,-0.19,0.37,8.63,-0.16,-0.88,0.35,27.93,80.0-90.0
80.0,1297.0,1.48,-0.85,11.46,-1.47,-1.05,-2.11,27.92,80.0-90.0
80.0,2214.0,-1.63,-3.14,8.75,-5.67,-0.95,-3.78,27.93,80.0-90.0
80.0,1609.0,-0.65,-1.33,9.15,-2.68,3.52,-1.71,27.92,80.0-90.0
80.0,2927.0,1.58,2.32,10.56,4.65,-1.15,2.44,27.92,80.0-90.0
80.0,209.0,-2.41,-2.29,9.85,-3.74,3.1,-1.8,27.91,80.0-90.0
80.0,1644.0,-0.43,-3.39,10.42,-5.44,-0.1,-0.7,27.91,80.0-90.0
80.0,2010.0,-0.57,0.62,8.53,0.38,-1.03,2.49,27.91,80.0-90.0
80.0,2419.0,1.75,3.87,10.08,6.88,2.69,3.3,27.9,80.0-90.0
80.0,1088.0,-2.05,-3.31,9.07,-6.31,-1.11,-2.14,27.9,80.0-90.0
80.0,1738.0,-0.53,-1.8,9.42,-2.26,3.87,-1.51,27.91,80.0-90.0
80.0,2927.0,1.99,2.14,10.31,3.35,-2.3,1.04,27.93,80.0-90.0
80.0,1167.0,-1.47,3.64,8.7,5.75,0.59,0.73,27.91,80.0-90.0
80.0,1858.0,-0.14,-3.67,10.47,-5.79,-1.17,-2.94,27.89,80.0-90.0
80.0,2426.0,-1.28,-0.18,8.37,-0.39,1.11,0.43,27.92,80.0-90.0
80.0,2604.0,2.46,3.46,10.48,6.1,1.35,3.22,27.89,80.0-90.0
80.0,0.0,0.1,2.11,10.04,2.28,-4.39,2.26,27.9,80.0-90.0
80.0,2035.0,0.17,-2.6,10.01,-3.56,3.32,-0.24,27.92,80.0-90.0
80.0,1648.0,1.19,1.41,9.84,1.75,-3.32,2.61,27.9,80.0-90.0
80.0,2762.0,-0.15,3.94,9.29,6.3,1.95,2.21,27.91,80.0-90.0
80.0,999.0,1.78,0.01,11.48,-0.04,-2.22,-1.02,27.9,80.0-90.0
80.0,2187.0,-1.49,-0.8,8.67,-1.23,3.64,-1.39,27.92,80.0-90.0
80.0,2195.0,2.78,2.73,10.94,4.8,-0.68,1.3,27.92,80.0-90.0
80.0,1829.0,-0.96,2.9,9.12,3.67,-2.82,0.93,27.92,80.0-90.0
80.0,999.0,-0.4,-1.5,10.18,-1.82,2.37,-1.39,27.91,80.0-90.0
80.0,688.0,-0.89,0.67,8.84,0.12,-1.88,1.75,27.91,80.0-90.0
80.0,2416.0,1.38,3.86,9.76,6.22,2.6,3.4,27.93,80.0-90.0
80.0,623.0,1.38,1.28,10.81,1.26,-4.1,1.74,27.93,80.0-90.0
80.0,1836.0,-2.79,-2.73,8.94,-4.08,1.37,-1.53,27.92,80.0-90.0
80.0,726.0,1.73,1.87,10.43,2.39,-2.88,2.03,27.93,80.0-90.0
80.0,2304.0,-1.34,3.79,8.71,5.78,1.18,1.43,27.94,80.0-90.0
80.0,0.0,1.6,-0.26,11.06,0.1,-0.28,-1.63,27.93,80.0-90.0
80.0,1113.0,-1.96,-3.53,8.99,-5.9,-1.23,-3.27,27.94,80.0-90.0
80.0,720.0,2.97,3.0,10.8,5.11,0.4,1.71,27.92,80.0-90.0
80.0,1649.0,-0.23,2.54,9.69,3.28,-3.79,1.65,27.94,80.0-90.0
80.0,560.0,-1.36,-1.66,9.63,-2.08,2.75,-0.89,27.91,80.0-90.0
80.0,1175.0,-0.31,-3.58,10.42,-5.7,-0.89,-0.99,27.91,80.0-90.0
80.0,1555.0,0.91,4.06,9.49,6.4,2.63,3.37,27.92,80.0-90.0
80.0,1118.0,1.24,1.16,10.82,1.09,-3.75,1.14,27.92,80.0-90.0
80.0,1747.0,-3.08,-2.62,8.79,-4.02,2.04,-2.35,27.94,80.0-90.0
80.0,1074.0,0.93,-3.15,10.78,-4.32,1.81,-2.7,27.91,80.0-90.0
80.0,2000.0,-1.37,3.59,8.76,5.26,0.01,0.98,27.94,80.0-90.0
80.0,0.0,1.37,-0.58,11.05,-0.37,0.1,-1.62,27.91,80.0-90.0
80.0,1267.0,-1.83,-3.32,9.14,-5.61,-1.72,-2.66,27.92,80.0-90.0
80.0,859.0,-0.74,-1.89,9.26,-2.35,4.46,-0.84,27.92,80.0-90.0
80.0,1168.0,-0.74,2.61,9.39,3.31,-3.47,2.37,27.91,80.0-90.0
80.0,0.0,-1.03,-1.21,9.72,-1.33,3.82,-0.6,27.92,80.0-90.0
80.0,1584.0,0.83,-3.92,10.94,-6.6,-2.82,-1.19,27.9,80.0-90.0
80.0,320.0,-1.94,-0.59,8.42,-1.2,1.7,0.05,27.91,80.0-90.0
80.0,1657.0,1.55,1.07,11.15,1.49,-3.98,0.58,27.93,80.0-90.0
80.0,94.0,-2.91,-2.39,8.61,-4.0,1.55,-2.84,27.91,80.0-90.0
80.0,1039.0,1.44,-3.41,10.95,-4.63,1.78,-2.85,27.92,80.0-90.0
80.0,1977.0,-0.74,0.7,8.79,0.15,-2.04,0.23,27.92,80.0-90.0
80.0,1384.0,1.73,-0.08,11.51,0.33,-0.42,-0.64,27.92,80.0-90.0
80.0,1926.0,-2.39,-3.67,9.31,-6.44,-2.17,-1.97,27.93,80.0-90.0
80.0,1648.0,-0.65,-2.19,9.34,-2.57,4.68,-0.69,27.92,80.0-90.0
80.0,2000.0,2.01,1.71,10.24,2.09,-2.86,2.76,27.89,80.0-90.0
80.0,578.0,-0.44,-1.24,10.11,-1.32,3.07,-0.56,27.89,80.0-90.0
80.0,2009.0,0.15,-3.93,10.73,-6.58,-3.0,-2.04,27.94,80.0-90.0
80.0,1066.0,-1.82,-0.76,8.33,-1.55,2.27,-0.79,27.93,80.0-90.0
80.0,2607.0,2.81,2.68,10.88,4.54,-0.05,1.39,27.91,80.0-90.0
80.0,128.0,-2.57,-2.35,9.0,-3.39,2.07,-2.88,27.92,80.0-90.0
80.0,1913.0,0.87,-3.57,10.86,-4.95,1.29,-2.75,27.9,80.0-90.0
80.0,1099.0,-1.34,0.22,8.53,-0.22,-0.28,0.46,27.92,80.0-90.0
80.0,2925.0,2.38,3.5,10.29,5.72,1.67,2.88,27.92,80.0-90.0
80.0,1057.0,-2.88,-3.03,8.62,-5.1,-0.18,-1.37,27.91,80.0-90.0
80.0,2134.0,0.58,-2.8,10.23,-3.99,3.43,-0.92,27.92,80.0-90.0
80.0,2182.0,0.64,1.33,9.73,1.32,-3.23,2.08,27.94,80.0-90.0
80.0,1663.0,-0.82,3.87,8.91,5.98,2.13,2.24,27.91,80.0-90.0
80.0,1775.0,-0.96,-3.8,10.13,-6.26,-2.8,-2.64,27.92,80.0-90.0
80.0,2138.0,-1.5,-1.42,8.53,-1.94,4.33,-1.68,27.91,80.0-90.0
80.0,2667.0,2.91,2.51,10.74,3.72,-1.75,1.33,27.92,80.0-90.0
80.0,1699.0,-0.41,3.27,9.07,4.39,-1.87,1.77,27.93,80.0-90.0
80.0,2544.0,0.32,-3.76,10.67,-6.02,-1.02,-2.09,27.92,80.0-90.0
80.0,2436.0,-1.8,-0.01,8.42,-0.6,1.08,0.78,27.92,80.0-90.0
80.0,2419.0,2.58,3.45,10.71,5.4,1.15,3.19,27.92,80.0-90.0
80.0,411.0,0.62,2.14,10.08,2.44,-5.03,2.29,27.95,80.0-90.0
80.0,2201.0,0.76,-2.89,10.39,-4.19,3.17,-1.27,27.92,80.0-90.0
80.0,1264.0,0.45,1.14,9.61,0.86,-3.33,1.33,27.91,80.0-90.0
80.0,2923.0,0.3,3.72,9.19,5.96,1.87,1.72,27.93,80.0-90.0
80.0,384.0,1.66,0.9,11.26,1.38,-2.86,-0.35,27.92,80.0-90.0
80.0,1535.0,-1.42,-1.43,8.82,-2.1,4.26,-1.75,27.91,80.0-90.0
80.0,1457.0,2.13,2.16,10.65,3.02,-2.33,1.77,27.93,80.0-90.0
80.0,2107.0,-0.69,3.39,8.94,4.59,-1.02,2.24,27.91,80.0-90.0
80.0,1089.0,1.02,-0.29,10.91,0.24,0.53,-0.03,27.91,80.0-90.0
80.0,1462.0,-1.99,-0.08,8.28,-0.68,1.82,0.82,27.9,80.0-90.0
80.0,1225.0,2.66,3.12,10.75,4.94,0.98,2.93,27.92,80.0-90.0
80.0,1676.0,-0.27,2.5,9.58,3.18,-3.56,1.8,27.89,80.0-90.0
80.0,1435.0,-1.24,-1.33,9.73,-1.53,2.49,-1.77,27.92,80.0-90.0
80.0,1183.0,-0.61,1.04,9.02,0.9,-1.63,0.5,27.91,80.0-90.0
80.0,1986.0,1.55,3.52,10.06,5.3,1.88,1.6,27.92,80.0-90.0
80.0,0.0,1.32,1.16,10.86,1.72,-4.49,0.43,27.94,80.0-90.0
80.0,1123.0,-2.53,-2.38,8.62,-3.8,1.88,-2.18,27.93,80.0-90.0
80.0,320.0,1.98,1.62,10.34,1.7,-3.14,2.04,27.92,80.0-90.0
80.0,2250.0,-0.27,3.86,8.48,5.63,0.59,2.96,27.91,80.0-90.0
80.0,0.0,1.49,0.28,11.39,0.74,-0.22,0.66,27.91,80.0-90.0
80.0,1205.0,-3.14,-3.25,8.94,-5.3,-0.86,-1.75,27.91,80.0-90.0
80.0,1089.0,2.56,2.47,11.34,3.72,-1.05,2.4,27.91,80.0-90.0
80.0,1626.0,-0.91,3.08,9.09,4.08,-2.46,1.72,27.91,80.0-90.0
80.0,0.0,0.48,-0.76,10.3,0.09,2.62,-1.68,27.92,80.0-90.0
80.0,897.0,-1.24,-3.56,9.84,-6.06,-2.1,-2.87,27.93,80.0-90.0
80.0,948.0,2.34,3.48,10.43,5.69,2.22,1.88,27.91,80.0-90.0
80.0,1710.0,-0.01,2.23,9.8,2.79,-4.01,1.57,27.92,80.0-90.0
80.0,878.0,-1.88,-1.59,9.35,-2.03,3.09,-1.28,27.89,80.0-90.0
80.0,1297.0,0.66,-3.94,10.72,-6.15,-0.83,-1.45,27.9,80.0-90.0
80.0,2124.0,0.84,3.72,9.54,5.61,2.04,3.1,27.9,80.0-90.0
80.0,690.0,1.05,0.95,10.76,2.04,-2.24,1.16,27.89,80.0-90.0
80.0,1616.0,-2.93,-2.44,8.8,-4.12,1.2,-2.14,27.89,80.0-90.0
80.0,1476.0,1.48,-3.43,10.93,-4.8,1.75,-2.46,27.9,80.0-90.0
80.0,2926.0,-0.11,3.39,9.1,4.66,-1.23,1.59,27.93,80.0-90.0
80.0,318.0,1.04,-0.2,11.12,0.7,0.19,-1.07,27.91,80.0-90.0
80.0,1406.0,-2.36,-3.35,9.17,-5.91,-2.19,-2.59,27.92,80.0-90.0
80.0,746.0,0.05,-2.27,9.71,-2.89,4.28,-1.28,27.91,80.0-90.0
80.0,2927.0,-0.32,2.78,9.15,3.35,-3.52,2.3,27.91,80.0-90.0
80.0,0.0,-0.84,-1.16,10.04,-0.97,3.53,-0.61,27.92,80.0-90.0
80.0,2221.0,-0.48,-3.73,10.28,-6.31,-2.1,-1.45,27.9,80.0-90.0
80.0,1167.0,-1.7,-0.93,8.51,-1.56,3.43,-0.31,27.89,80.0-90.0
80.0,2270.0,1.0,1.61,10.65,1.57,-5.2,1.24,27.9,80.0-90.0
80.0,715.0,-2.36,-2.12,9.29,-2.87,2.68,-2.29,27.91,80.0-90.0
80.0,1808.0,0.7,-3.61,10.89,-5.47,-0.62,-2.84,27.91,80.0-90.0
80.0,1616.0,-1.92,0.25,8.38,-0.49,-0.62,-0.15,27.92,80.0-90.0
80.0,2038.0,1.81,0.78,11.08,1.22,-2.66,0.05,27.92,80.0-90.0
80.0,2320.0,-3.0,-2.94,8.86,-5.13,-0.56,-2.03,27.92,80.0-90.0
80.0,2517.0,0.82,-3.01,10.58,-3.93,3.12,-1.27,27.91,80.0-90.0
80.0,2927.0,0.32,0.91,9.38,0.45,-3.23,2.03,27.92,80.0-90.0
80.0,1068.0,1.21,-0.31,11.04,0.15,0.75,0.15,27.92,80.0-90.0
80.0,1920.0,-1.85,-3.36,9.21,-5.79,-2.17,-1.89,27.91,80.0-90.0
80.0,2389.0,-0.55,-2.0,9.4,-3.06,3.85,-1.46,27.91,80.0-90.0
80.0,2608.0,1.94,1.64,10.67,1.87,-2.86,1.27,27.92,80.0-90.0
80.0,368.0,-0.83,-1.31,10.19,-1.62,2.01,-1.97,27.89,80.0-90.0
80.0,2432.0,-0.43,-3.84,10.38,-6.26,-2.34,-2.79,27.92,80.0-90.0
80.0,1665.0,-1.69,-0.87,8.38,-1.79,2.54,-0.73,27.92,80.0-90.0
80.0,2926.0,2.89,2.72,10.77,4.4,0.04,2.4,27.9,80.0-90.0
80.0,0.0,-2.66,-2.26,9.07,-3.42,1.76,-1.48,27.9,80.0-90.0
80.0,1600.0,1.1,-3.65,10.98,-5.5,0.07,-1.5,27.92,80.0-90.0
80.0,539.0,-1.43,0.28,8.71,-0.33,-1.08,1.16,27.91,80.0-90.0
80.0,2086.0,1.93,3.58,10.33,5.66,1.72,2.55,27.92,80.0-90.0
80.0,496.0,-2.58,-3.04,9.14,-5.54,-1.21,-2.35,27.91,80.0-90.0
80.0,1982.0,0.37,-2.58,10.13,-3.58,3.32,-2.17,27.91,80.0-90.0
80.0,2123.0,0.5,1.31,9.71,1.09,-3.14,0.89,27.92,80.0-90.0
80.0,1275.0,0.23,3.78,9.28,5.63,2.37,1.83,27.9,80.0-90.0
80.0,587.0,-1.22,-3.74,9.77,-6.49,-2.16,-2.33,27.89,80.0-90.0
80.0,1491.0,-1.38,-1.4,8.78,-1.71,4.54,-0.63,27.92,80.0-90.0
80.0,2559.0,2.68,2.0,10.74,2.6,-2.01,2.67,27.89,80.0-90.0
80.0,1085.0,-1.71,-1.72,9.34,-2.49,3.33,-1.1,27.91,80.0-90.0
80.0,1762.0,0.51,-3.69,10.81,-5.61,-1.46,-1.66,27.91,80.0-90.0
80.0,887.0,-2.08,-0.24,8.21,-1.0,1.49,0.08,27.9,80.0-90.0
80.0,1883.0,2.2,3.08,10.83,4.89,1.12,2.01,27.91,80.0-90.0
80.0,0.0,-3.38,-2.62,8.89,-4.2,0.57,-2.59,27.9,80.0-90.0
80.0,1007.0,0.45,-3.27,10.48,-4.54,2.19,-2.55,27.91,80.0-90.0
80.0,730.0,-0.57,0.79,8.88,0.68,-1.9,0.67,27.91,80.0-90.0
80.0,1800.0,1.26,3.83,9.72,5.96,2.43,2.37,27.88,80.0-90.0
80.0,0.0,-1.94,-2.96,8.87,-5.25,-1.11,-1.91,27.89,80.0-90.0
80.0,1178.0,-0.1,-2.27,9.87,-3.07,4.19,-0.85,27.91,80.0-90.0
80.0,256.0,1.25,1.46,10.09,1.19,-3.56,2.33,27.91,80.0-90.0
80.0,1649.0,-0.75,3.88,8.59,5.63,1.72,2.64,27.93,80.0-90.0
80.0,203.0,-0.3,-3.96,10.19,-6.54,-2.97,-2.23,27.92,80.0-90.0
80.0,1153.0,-2.18,-1.0,8.19,-1.58,4.45,-1.05,27.92,80.0-90.0
80.0,1482.0,1.95,2.68,10.68,4.22,-0.3,1.65,27.92,80.0-90.0
80.0,749.0,-1.1,3.34,8.83,4.56,-1.87,1.56,27.92,80.0-90.0
80.0,2000.0,0.21,-3.7,10.83,-5.36,0.21,-2.5,27.92,80.0-90.0
80.0,1396.0,-1.62,0.18,8.17,-0.13,-0.02,0.37,27.91,80.0-90.0
80.0,1963.0,2.4,3.41,10.45,5.7,1.88,2.69,27.89,80.0-90.0
80.0,1039.0,0.46,2.18,10.17,2.6,-4.56,2.12,27.89,80.0-90.0
80.0,1779.0,0.69,-2.76,10.26,-3.91,3.14,-1.11,27.89,80.0-90.0
80.0,1091.0,-0.03,1.17,9.26,0.82,-2.59,1.75,27.9,80.0-90.0
80.0,2409.0,-0.34,4.06,9.07,6.19,2.85,2.27,27.9,80.0-90.0
80.0,0.0,2.27,0.87,11.38,0.9,-3.72,0.17,27.92,80.0-90.0
80.0,1605.0,-0.92,-1.6,8.8,-2.63,4.01,-1.57,27.9,80.0-90.0
80.0,926.0,2.21,2.16,10.71,3.11,-2.4,1.6,27.93,80.0-90.0
80.0,2928.0,-1.2,3.38,8.83,4.56,-1.03,1.86,27.92,80.0-90.0
80.0,862.0,1.36,-0.65,11.12,0.06,0.25,-0.52,27.91,80.0-90.0
80.0,1589.0,-1.89,-0.35,8.26,-1.06,0.72,0.5,27.91,80.0-90.0
80.0,2854.0,2.77,3.1,10.81,4.92,0.43,2.85,27.91,80.0-90.0
80.0,2224.0,0.14,2.44,9.74,2.92,-4.39,2.11,27.92,80.0-90.0
80.0,1926.0,-1.57,-1.37,9.71,-1.44,3.38,-1.36,27.91,80.0-90.0
80.0,2275.0,-0.45,0.95,8.84,0.57,-2.31,1.24,27.91,80.0-90.0
80.0,2800.0,0.55,3.68,9.65,5.63,2.52,1.89,27.9,80.0-90.0
80.0,1297.0,1.22,1.47,10.73,2.16,-3.29,0.41,27.91,80.0-90.0
80.0,2389.0,-2.82,-2.35,8.79,-4.09,1.29,-2.46,27.89,80.0-90.0
80.0,1894.0,1.99,1.91,10.34,2.13,-3.03,1.68,27.89,80.0-90.0
80.0,2926.0,-0.75,3.66,8.55,4.91,0.05,2.32,27.92,80.0-90.0
80.0,0.0,1.04,0.08,11.16,0.83,0.36,0.12,27.9,80.0-90.0
80.0,2622.0,-2.99,-3.47,9.21,-5.88,-1.7,-1.72,27.88,80.0-90.0
80.0,1765.0,2.62,2.7,11.04,4.34,-0.11,2.79,27.9,80.0-90.0
80.0,2589.0,-0.64,2.74,9.47,3.63,-3.67,2.08,27.92,80.0-90.0
80.0,293.0,-0.67,-0.81,9.84,-0.49,2.97,-1.5,27.9,80.0-90.0
80.0,2352.0,0.51,-4.01,10.6,-6.58,-2.98,-2.69,27.93,80.0-90.0
80.0,1825.0,1.66,3.46,10.12,5.29,1.04,1.8,27.92,80.0-90.0
80.0,2000.0,0.89,1.72,10.68,2.18,-4.07,0.66,27.89,80.0-90.0
80.0,1435.0,-2.47,-1.81,9.01,-3.07,1.73,-2.08,27.91,80.0-90.0
80.0,2137.0,1.69,-3.7,11.0,-5.77,-0.11,-1.8,27.92,80.0-90.0
80.0,2141.0,-0.23,3.59,8.84,5.0,1.26,2.61,27.9,80.0-90.0
80.0,754.0,1.14,0.83,10.99,1.72,-0.86,0.69,27.92,80.0-90.0
80.0,1664.0,-2.79,-3.22,9.15,-6.11,-1.85,-1.83,27.92,80.0-90.0
80.0,1296.0,-0.18,-2.91,10.22,-3.38,4.54,-1.63,27.91,80.0-90.0
80.0,2313.0,-0.18,3.11,9.36,4.1,-2.04,2.04,27.9,80.0-90.0
80.0,634.0,0.45,-0.84,10.59,0.07,2.36,-1.31,27.9,80.0-90.0
80.0,1509.0,-0.95,-3.96,10.04,-6.83,-3.23,-2.78,27.89,80.0-90.0
80.0,0.0,-1.96,-1.15,8.8,-1.03,4.57,-1.27,27.91,80.0-90.0
80.0,1831.0,0.02,2.3,10.09,3.26,-4.68,1.59,27.93,80.0-90.0
80.0,0.0,-1.01,-1.57,9.57,-2.23,2.52,-1.37,27.88,80.0-90.0
80.0,1106.0,0.87,-3.78,10.57,-5.94,-1.84,-1.71,27.9,80.0-90.0
80.0,983.0,-2.26,-0.31,8.39,-0.84,3.03,0.2,27.92,80.0-90.0
80.0,1863.0,1.31,1.37,10.86,1.47,-4.02,1.17,27.9,80.0-90.0
80.0,0.0,-2.97,-2.37,8.85,-3.8,1.56,-2.06,27.89,80.0-90.0
80.0,442.0,0.59,-3.32,10.46,-4.81,1.78,-2.41,27.91,80.0-90.0
80.0,908.0,-1.15,0.67,8.94,0.04,-1.12,0.29,27.9,80.0-90.0
80.0,1570.0,1.35,0.4,10.98,0.86,-1.38,-0.38,27.92,80.0-90.0
80.0,815.0,-3.45,-3.31,8.94,-5.51,0.07,-2.49,27.91,80.0-90.0
80.0,1808.0,-0.1,-2.49,9.98,-3.06,3.9,-1.46,27.91,80.0-90.0
80.0,1721.0,1.28,1.37,9.73,1.14,-4.16,1.98,27.91,80.0-90.0
80.0,701.0,0.34,-0.68,10.21,0.01,2.45,-0.49,27.88,80.0-90.0
80.0,1760.0,-0.88,-3.44,9.64,-5.76,-1.79,-1.88,27.93,80.0-90.0
80.0,771.0,-1.47,-1.31,8.77,-1.52,4.77,-0.84,27.91,80.0-90.0
80.0,2189.0,2.53,2.32,10.77,2.8,-2.85,1.95,27.9,80.0-90.0
80.0,0.0,-1.48,-1.39,9.45,-1.62,2.97,-1.97,27.89,80.0-90.0
80.0,1826.0,0.81,-3.79,10.61,-6.12,-1.35,-2.56,27.92,80.0-90.0
80.0,980.0,-1.89,-0.13,8.52,-0.83,1.82,-0.27,27.91,80.0-90.0
80.0,2513.0,2.44,2.75,10.8,4.33,0.13,2.27,27.89,80.0-90.0
80.0,336.0,-3.02,-2.62,9.05,-4.43,0.59,-1.91,27.92,80.0-90.0
80.0,2159.0,0.68,-3.23,10.64,-4.75,1.24,-1.51,27.9,80.0-90.0
80.0,1489.0,-0.6,0.56,8.98,-0.22,-1.66,1.33,27.9,80.0-90.0
80.0,2511.0,1.34,3.64,9.64,6.1,2.51,2.61,27.9,80.0-90.0
80.0,730.0,-2.48,-3.32,9.25,-5.53,-1.53,-2.12,27.91,80.0-90.0
80.0,2071.0,-0.27,-2.18,9.69,-2.84,3.56,-1.66,27.92,80.0-90.0
80.0,2185.0,1.11,1.73,9.9,2.16,-2.43,1.27,27.91,80.0-90.0
80.0,2638.0,-0.28,3.51,9.21,4.98,0.72,1.79,27.91,80.0-90.0
80.0,1535.0,-1.2,-3.66,9.89,-6.06,-1.82,-2.61,27.93,80.0-90.0
80.0,2262.0,-1.81,-1.22,8.61,-1.76,4.2,-0.73,27.89,80.0-90.0
80.0,2290.0,2.66,2.4,10.87,2.97,-2.33,2.43,27.9,80.0-90.0
80.0,1871.0,-0.56,3.39,8.78,4.28,-1.38,2.58,27.9,80.0-90.0
80.0,1789.0,0.79,-3.8,10.58,-5.96,-0.77,-1.68,27.9,80.0-90.0
80.0,1991.0,-2.47,-0.01,8.03,-0.55,2.27,0.38,27.89,80.0-90.0
80.0,2927.0,2.47,2.94,10.84,4.22,0.08,2.33,27.91,80.0-90.0
80.0,602.0,-0.25,2.7,9.52,3.53,-4.16,1.63,27.9,80.0-90.0
80.0,1959.0,1.13,-3.33,10.78,-4.32,2.04,-2.26,27.89,80.0-90.0
80.0,1478.0,-0.68,0.41,9.02,-0.65,-2.85,0.58,27.9,80.0-90.0
80.0,2768.0,1.54,3.73,9.82,6.42,2.78,2.27,27.91,80.0-90.0
80.0,0.0,1.64,1.55,10.99,2.09,-5.2,1.27,27.91,80.0-90.0
80.0,1125.0,-0.11,-2.24,9.69,-3.04,4.19,-1.24,27.92,80.0-90.0
80.0,1122.0,1.72,1.51,10.21,1.34,-3.65,2.08,27.88,80.0-90.0
80.0,1922.0,-0.77,3.96,8.71,5.98,1.93,2.62,27.89,80.0-90.0
80.0,0.0,1.97,0.13,11.54,0.48,-1.67,0.18,27.88,80.0-90.0
80.0,1287.0,-1.33,-1.3,8.76,-2.43,2.94,-0.82,27.89,80.0-90.0
80.0,938.0,2.88,2.16,11.29,3.05,-1.55,1.82,27.89,80.0-90.0
80.0,2345.0,-0.43,-2.04,9.89,-1.09,3.39,-1.31,27.4,80.0-90.0
80.0,1261.0,1.47,-1.6,10.3,-4.75,-2.45,-0.41,27.37,80.0-90.0
80.0,637.0,-0.48,3.37,9.01,4.62,-0.28,0.73,27.39,80.0-90.0
80.0,1200.0,-1.04,-1.38,9.67,0.22,0.07,-1.05,27.38,80.0-90.0
80.0,2163.0,1.47,0.99,10.26,-1.1,-1.37,2.15,27.38,80.0-90.0
80.0,1031.0,0.53,2.4,10.07,5.52,-0.53,1.45,27.39,80.0-90.0
80.0,1390.0,-1.12,-2.5,9.66,-2.63,3.44,-0.02,27.39,80.0-90.0
80.0,2608.0,1.62,-1.23,10.22,-4.64,-2.3,0.95,27.38,80.0-90.0
80.0,810.0,-0.85,-0.12,9.97,2.22,-0.27,-0.95,27.4,80.0-90.0
80.0,1053.0,-1.94,-2.97,9.52,-4.78,2.49,-2.4,27.39,80.0-90.0
80.0,2107.0,0.17,0.69,9.21,-2.07,-0.66,-0.41,27.39,80.0-90.0
80.0,96.0,-0.06,4.21,9.57,8.39,0.34,0.56,27.4,80.0-90.0
80.0,805.0,-0.87,-3.35,10.09,-6.6,-1.15,-2.08,27.39,80.0-90.0
80.0,2267.0,0.38,1.65,9.07,0.12,-0.95,1.97,27.4,80.0-90.0
80.0,640.0,-1.59,3.76,9.02,8.92,2.72,2.73,27.41,80.0-90.0
80.0,1401.0,-0.38,-2.98,10.39,-3.7,2.22,-1.05,27.39,80.0-90.0
80.0,944.0,0.64,2.18,8.89,1.02,-3.12,3.37,27.41,80.0-90.0
80.0,2927.0,-2.56,3.9,8.19,8.74,3.24,2.44,27.38,80.0-90.0
80.0,2771.0,0.3,-3.15,10.59,-4.41,1.82,-2.82,27.39,80.0-90.0
80.0,1183.0,-0.31,-2.92,11.05,-5.64,-0.68,-2.69,27.41,80.0-90.0
80.0,2695.0,-1.76,4.29,8.05,9.2,4.77,0.93,27.4,80.0-90.0
80.0,1404.0,1.1,-2.46,11.18,-3.29,0.79,-3.27,27.38,80.0-90.0
80.0,2207.0,0.18,-3.29,10.18,-6.99,-2.71,-2.61,27.4,80.0-90.0
80.0,2771.0,0.7,4.51,8.49,9.44,5.3,2.66,27.38,80.0-90.0
80.0,464.0,1.71,-0.67,11.93,-0.8,-3.03,0.09,27.4,80.0-90.0
80.0,1974.0,-1.87,-4.21,9.29,-8.0,-1.47,-1.6,27.38,80.0-90.0
80.0,579.0,-0.9,-0.01,8.47,-0.66,2.98,0.76,27.4,80.0-90.0
80.0,1728.0,-0.99,1.72,9.7,3.29,-3.32,1.33,27.39,80.0-90.0
80.0,0.0,-2.4,-3.63,9.42,-6.95,1.27,-3.22,27.41,80.0-90.0
80.0,1125.0,-1.01,-2.42,10.32,-3.35,2.65,-2.33,27.38,80.0-90.0
80.0,1255.0,0.98,1.82,9.29,1.83,-3.75,1.02,27.38,80.0-90.0
80.0,561.0,1.54,-2.27,11.11,-4.22,-1.05,-3.07,27.37,80.0-90.0
80.0,2403.0,-0.23,-3.43,9.55,-6.09,-1.29,-2.85,27.38,80.0-90.0
80.0,1856.0,-1.32,0.68,8.33,0.38,2.97,0.96,27.39,80.0-90.0
80.0,2925.0,2.51,2.81,10.88,5.73,0.6,3.71,27.39,80.0-90.0
80.0,711.0,-2.93,-4.09,9.63,-7.53,0.3,-1.86,27.39,80.0-90.0
80.0,2655.0,-0.66,-2.21,10.12,-2.08,3.18,-0.35,27.39,80.0-90.0
80.0,1961.0,1.05,2.22,9.75,2.01,-5.68,2.72,27.39,80.0-90.0
80.0,1411.0,0.17,4.19,8.94,7.26,4.55,1.88,27.39,80.0-90.0
80.0,634.0,0.56,-3.62,9.86,-6.52,-2.95,-3.17,27.39,80.0-90.0
80.0,1023.0,-1.58,0.37,8.12,0.9,3.32,-0.53,27.37,80.0-90.0
80.0,2264.0,3.19,2.72,11.38,4.73,-0.27,1.86,27.4,80.0-90.0
80.0,0.0,-2.65,2.49,9.29,3.93,-2.46,1.25,27.37,80.0-90.0
80.0,437.0,-0.73,-2.6,10.28,-2.32,3.36,-1.17,27.37,80.0-90.0
80.0,298.0,0.59,1.89,9.37,0.99,-5.01,3.04,27.38,80.0-90.0
80.0,2928.0,2.14,3.92,9.3,6.56,4.11,3.22,27.39,80.0-90.0
80.0,0.0,0.23,0.72,10.9,0.48,-3.69,0.66,27.39,80.0-90.0
80.0,1678.0,-2.03,0.03,8.26,1.03,5.61,0.05,27.37,80.0-90.0
80.0,2927.0,1.68,2.54,11.26,3.03,-3.56,2.26,27.4,80.0-90.0
80.0,2223.0,-1.78,3.33,9.07,5.3,2.05,0.96,27.39,80.0-90.0
80.0,1233.0,2.23,-1.58,11.37,-2.1,-1.93,-2.26,27.39,80.0-90.0
80.0,2580.0,-1.3,0.62,8.36,1.11,0.95,0.18,27.41,80.0-90.0
80.0,1762.0,3.07,3.21,10.69,5.2,1.5,2.26,27.39,80.0-90.0
80.0,1856.0,-1.72,2.06,9.39,3.44,-2.43,1.62,27.41,80.0-90.0
80.0,1648.0,-0.38,-2.66,9.98,-4.9,0.43,-1.53,27.37,80.0-90.0
80.0,1423.0,1.25,1.89,9.69,0.62,-5.18,3.02,27.38,80.0-90.0
80.0,1872.0,1.94,4.08,9.06,6.25,3.06,2.96,27.39,80.0-90.0
80.0,0.0,0.7,0.29,11.16,0.27,-2.34,-0.03,27.4,80.0-90.0
80.0,1219.0,-3.2,-3.94,9.36,-6.44,0.22,-3.19,27.39,80.0-90.0
80.0,631.0,1.52,2.58,11.09,2.91,-3.26,1.66,27.37,80.0-90.0
80.0,1705.0,-2.11,3.25,8.59,5.32,1.64,0.85,27.39,80.0-90.0
80.0,0.0,1.65,-1.34,11.03,-1.78,-0.91,-1.71,27.39,80.0-90.0
80.0,2384.0,-0.55,-4.41,9.77,-7.3,-3.12,-2.47,27.38,80.0-90.0
80.0,2185.0,2.22,2.9,10.92,4.44,1.29,2.85,27.39,80.0-90.0
80.0,2619.0,-1.47,1.75,9.64,3.12,-2.63,1.97,27.39,80.0-90.0
80.0,807.0,-0.31,-2.63,9.65,-4.25,0.74,-1.5,27.4,80.0-90.0
80.0,2918.0,0.45,-3.27,10.43,-4.8,0.28,-1.51,27.4,80.0-90.0
80.0,2325.0,1.68,4.11,9.25,6.3,3.55,2.38,27.39,80.0-90.0
80.0,1104.0,0.36,0.21,11.03,0.74,-1.59,-0.47,27.39,80.0-90.0
80.0,1098.0,-2.15,-3.64,9.33,-6.37,-0.59,-3.3,27.38,80.0-90.0
80.0,1638.0,-0.29,-2.42,10.09,-2.43,3.32,-2.26,27.39,80.0-90.0
80.0,1623.0,-0.72,3.33,9.03,4.94,0.33,1.46,27.39,80.0-90.0
80.0,0.0,1.52,-1.39,11.16,-1.7,-0.39,-1.07,27.38,80.0-90.0
80.0,1520.0,-1.18,-4.17,9.17,-6.69,-1.95,-2.03,27.37,80.0-90.0
80.0,1197.0,-1.97,-0.21,8.28,0.12,5.68,0.26,27.4,80.0-90.0
80.0,2920.0,-2.2,2.31,9.29,3.47,-3.26,2.21,27.39,80.0-90.0
80.0,0.0,-0.17,-2.67,10.41,-4.96,-0.39,-1.85,27.39,80.0-90.0
80.0,1664.0,0.18,-3.57,10.46,-5.01,-0.48,-2.33,27.39,80.0-90.0
80.0,2393.0,-1.79,0.89,7.92,1.08,2.19,0.14,27.38,80.0-90.0
80.0,2434.0,0.47,0.21,10.95,1.28,-2.33,-0.47,27.38,80.0-90.0
80.0,285.0,-2.63,-3.86,9.46,-6.9,-1.03,-3.4,27.37,80.0-90.0
80.0,2490.0,-0.23,-2.67,10.3,-2.81,2.39,-1.97,27.39,80.0-90.0
80.0,2928.0,0.13,1.84,8.95,1.76,-2.53,1.86,27.4,80.0-90.0
80.0,1599.0,1.37,-1.27,11.15,-1.33,-0.62,-0.55,27.38,80.0-90.0
80.0,1337.0,-1.09,-4.06,9.42,-6.99,-2.57,-1.82,27.4,80.0-90.0
80.0,1182.0,-1.63,-0.66,8.47,-0.07,5.79,-0.12,27.36,80.0-90.0
80.0,1653.0,1.43,2.62,10.67,3.02,-2.92,2.75,27.39,80.0-90.0
80.0,0.0,0.04,-2.09,10.23,-3.13,0.8,-2.04,27.36,80.0-90.0
80.0,480.0,0.51,-3.86,10.33,-6.14,-2.4,-2.75,27.38,80.0-90.0
80.0,906.0,-1.96,0.45,8.17,0.91,3.47,-0.43,27.37,80.0-90.0
80.0,2400.0,3.25,2.83,11.26,4.42,-0.74,1.94,27.39,80.0-90.0
80.0,0.0,-2.41,-3.37,9.15,-5.71,0.04,-2.82,27.39,80.0-90.0
80.0,2339.0,0.54,-2.89,10.41,-3.64,1.87,-1.63,27.38,80.0-90.0
80.0,2369.0,-0.5,1.47,9.07,1.11,-1.82,2.15,27.38,80.0-90.0
80.0,2677.0,2.03,3.57,9.44,5.93,2.59,3.19,27.37,80.0-90.0
80.0,170.0,-1.39,-4.49,9.56,-7.54,-3.14,-1.98,27.38,80.0-90.0
80.0,2523.0,-2.1,-0.97,8.77,-0.26,6.02,-0.69,27.42,80.0-90.0
80.0,2047.0,1.94,2.61,10.5,2.45,-4.3,2.3,27.39,80.0-90.0
80.0,1216.0,-0.6,3.78,8.92,5.95,2.94,1.6,27.39,80.0-90.0
80.0,750.0,0.78,-3.73,10.0,-5.68,-1.44,-2.98,27.39,80.0-90.0
80.0,2064.0,-1.88,0.48,8.25,0.88,4.07,-0.23,27.39,80.0-90.0
80.0,2390.0,3.09,2.41,11.65,3.6,-2.04,2.35,27.38,80.0-90.0
80.0,0.0,-2.02,2.7,9.13,4.53,-1.38,1.8,27.39,80.0-90.0
80.0,1779.0,-0.26,-2.85,10.35,-2.98,3.23,-1.37,27.38,80.0-90.0
80.0,542.0,0.09,1.39,9.13,0.48,-2.75,2.18,27.38,80.0-90.0
80.0,2307.0,2.93,3.65,9.6,6.28,3.39,2.91,27.38,80.0-90.0
80.0,0.0,-1.42,1.4,9.93,2.33,-1.72,0.81,27.39,80.0-90.0
80.0,1726.0,-1.65,-1.04,9.12,-0.1,5.62,-1.01,27.4,80.0-90.0
80.0,1953.0,1.45,2.46,10.39,1.29,-5.47,1.98,27.39,80.0-90.0
80.0,2101.0,-0.11,4.02,9.02,6.53,3.88,1.66,27.39,80.0-90.0
80.0,914.0,1.64,-0.2,11.17,-0.48,-2.46,-0.64,27.38,80.0-90.0
80.0,1984.0,-1.71,0.06,8.55,0.24,3.88,-0.2,27.39,80.0-90.0
80.0,1392.0,1.86,2.51,11.2,2.82,-2.65,2.58,27.39,80.0-90.0
80.0,1203.0,-2.67,3.17,8.76,6.13,2.33,2.27,27.4,80.0-90.0
80.0,618.0,2.12,-1.71,11.27,-3.36,-2.34,-0.9,27.39,80.0-90.0
80.0,1907.0,-0.4,1.08,8.83,0.86,0.21,1.46,27.37,80.0-90.0
80.0,1664.0,3.0,2.88,10.73,4.27,-0.11,2.81,27.38,80.0-90.0
80.0,0.0,-2.57,2.37,9.04,4.62,-0.05,0.96,27.38,80.0-90.0
80.0,695.0,0.27,-2.48,10.48,-4.45,-0.66,-2.62,27.37,80.0-90.0
80.0,1067.0,0.67,2.01,9.49,1.19,-4.11,1.37,27.39,80.0-90.0
80.0,2926.0,2.96,3.7,9.51,5.61,1.61,2.12,27.39,80.0-90.0
80.0,592.0,-0.06,0.67,10.62,1.06,-1.96,0.08,27.38,80.0-90.0
80.0,2722.0,-2.18,-3.9,9.71,-6.23,0.27,-2.44,27.4,80.0-90.0
80.0,1681.0,1.54,2.38,11.01,1.22,-5.91,2.79,27.4,80.0-90.0
80.0,2928.0,-0.28,3.66,8.77,6.14,3.94,2.69,27.41,80.0-90.0
80.0,0.0,1.32,-0.47,10.87,-0.43,-0.53,-0.15,27.4,80.0-90.0
80.0,2306.0,-2.14,-4.57,9.59,-7.16,-1.76,-2.73,27.39,80.0-90.0
80.0,1438.0,2.63,2.57,11.22,3.08,-2.59,2.35,27.4,80.0-90.0
80.0,1772.0,-2.17,2.93,8.91,5.78,2.46,1.22,27.39,80.0-90.0
80.0,0.0,1.38,-1.59,10.62,-2.43,-0.88,-1.86,27.4,80.0-90.0
80.0,1315.0,-0.12,-4.28,9.52,-6.54,-1.87,-2.98,27.4,80.0-90.0
80.0,480.0,1.85,3.02,10.42,4.8,0.69,2.43,27.39,80.0-90.0
80.0,1613.0,-2.55,2.19,8.77,3.76,-1.12,1.4,27.38,80.0-90.0
80.0,379.0,-0.09,-2.47,10.69,-4.64,-0.21,-1.68,27.39,80.0-90.0
80.0,2398.0,0.31,-3.61,10.08,-5.47,-1.09,-1.75,27.39,80.0-90.0
80.0,1646.0,2.0,3.87,10.0,5.85,2.37,2.85,27.39,80.0-90.0
80.0,2392.0,0.01,0.87,10.36,1.22,-2.98,0.41,27.39,80.0-90.0
80.0,1659.0,-1.91,-3.55,9.87,-5.65,0.8,-2.9,27.39,80.0-90.0
80.0,2416.0,-0.18,-2.96,10.42,-3.67,1.46,-2.33,27.39,80.0-90.0
80.0,2927.0,-0.05,3.51,9.2,5.55,3.44,1.69,27.37,80.0-90.0
80.0,537.0,1.27,-0.51,11.28,-0.33,-2.17,-0.69,27.36,80.0-90.0
80.0,2682.0,-2.2,-4.33,9.53,-7.01,-1.88,-2.62,27.39,80.0-90.0
80.0,1151.0,-1.1,-1.78,9.59,-1.12,4.2,-0.92,27.38,80.0-90.0
80.0,2255.0,-1.46,2.97,9.37,5.37,1.04,2.53,27.38,80.0-90.0
80.0,0.0,2.05,-1.71,11.21,-3.07,-2.43,-0.84,27.39,80.0-90.0
80.0,1713.0,0.05,-3.95,9.1,-6.47,-2.39,-2.24,27.37,80.0-90.0
80.0,1195.0,-1.98,-0.26,8.58,0.71,6.23,-0.67,27.4,80.0-90.0
80.0,1986.0,-2.52,2.48,8.73,4.25,-0.1,0.92,27.37,80.0-90.0
80.0,0.0,0.17,-2.38,10.66,-4.38,-0.91,-2.4,27.39,80.0-90.0
80.0,2089.0,0.07,-3.6,9.92,-5.39,-1.21,-2.66,27.38,80.0-90.0
80.0,2004.0,-1.54,0.36,8.33,0.15,2.69,0.09,27.39,80.0-90.0
80.0,2779.0,-0.57,1.1,10.01,1.58,-3.47,0.69,27.39,80.0-90.0
80.0,990.0,-1.26,-3.69,10.09,-6.46,-0.3,-2.3,27.37,80.0-90.0
80.0,2634.0,0.04,-3.11,10.37,-3.35,2.04,-1.57,27.39,80.0-90.0
80.0,2011.0,-1.0,1.25,8.4,1.52,0.95,1.48,27.38,80.0-90.0
80.0,1522.0,0.59,-0.04,10.64,0.71,-0.62,-0.0,27.4,80.0-90.0
80.0,882.0,-2.34,-4.14,9.76,-6.63,-0.56,-2.73,27.38,80.0-90.0
80.0,1920.0,-0.86,-2.02,9.93,-1.88,2.78,-1.82,27.37,80.0-90.0
80.0,1381.0,0.11,2.06,9.61,1.11,-4.57,1.48,27.38,80.0-90.0
80.0,257.0,2.16,-1.0,11.13,-1.97,-2.68,-1.16,27.38,80.0-90.0
80.0,1578.0,-0.94,-4.39,9.21,-6.95,-1.79,-2.81,27.38,80.0-90.0
80.0,881.0,-1.94,-0.77,9.0,0.01,5.36,-0.76,27.39,80.0-90.0
80.0,1764.0,1.56,2.47,10.44,1.43,-5.78,2.81,27.38,80.0-90.0
80.0,284.0,1.41,-2.09,10.95,-3.74,-0.85,-1.42,27.38,80.0-90.0
80.0,2259.0,0.8,-4.01,9.94,-6.31,-2.72,-2.11,27.39,80.0-90.0
80.0,1212.0,-1.67,0.17,8.72,0.67,3.65,-0.0,27.4,80.0-90.0
80.0,2927.0,2.18,2.78,11.33,2.74,-4.25,2.52,27.39,80.0-90.0
80.0,0.0,-1.18,-2.78,9.78,-5.04,-0.15,-2.69,27.38,80.0-90.0
80.0,2559.0,1.38,-3.57,10.86,-5.19,-1.53,-2.43,27.37,80.0-90.0
80.0,2013.0,-1.08,0.87,8.92,1.32,1.32,0.43,27.38,80.0-90.0
80.0,2169.0,3.31,3.21,10.9,4.92,-0.97,2.66,27.39,80.0-90.0
80.0,0.0,-2.99,-3.63,9.31,-5.8,0.85,-2.49,27.39,80.0-90.0
80.0,1893.0,0.09,-2.34,10.19,-2.75,2.36,-1.3,27.38,80.0-90.0
80.0,327.0,0.19,1.89,9.15,1.54,-2.51,2.03,27.4,80.0-90.0
80.0,1452.0,2.11,3.78,10.02,6.21,2.51,2.79,27.39,80.0-90.0
80.0,384.0,-1.86,-4.11,9.17,-6.55,-1.06,-2.58,27.37,80.0-90.0
80.0,1853.0,-1.43,-0.83,8.91,-0.63,4.4,-1.01,27.4,80.0-90.0
80.0,2480.0,1.9,2.37,10.54,1.7,-4.78,1.98,27.4,80.0-90.0
80.0,293.0,-0.05,3.37,9.14,5.81,2.95,1.75,27.38,80.0-90.0
80.0,2496.0,0.65,-3.92,9.8,-5.93,-1.41,-2.78,27.38,80.0-90.0
80.0,2145.0,-1.89,0.45,8.6,0.93,4.05,-0.0,27.4,80.0-90.0
80.0,2926.0,2.92,2.78,11.24,3.64,-1.93,2.96,27.36,80.0-90.0
80.0,718.0,-2.36,2.94,8.61,5.03,0.54,1.89,27.38,80.0-90.0
80.0,2231.0,0.23,-2.94,10.35,-3.53,1.17,-1.46,27.38,80.0-90.0
80.0,1175.0,-1.02,1.73,8.68,1.31,-0.53,1.65,27.38,80.0-90.0
80.0,2380.0,2.48,3.19,10.51,4.8,0.8,2.55,27.39,80.0-90.0
80.0,0.0,-1.71,1.86,9.43,3.09,-1.55,0.75,27.37,80.0-90.0
80.0,1002.0,-1.29,-1.75,9.57,-1.41,4.14,-1.69,27.37,80.0-90.0
80.0,447.0,1.03,2.2,9.86,1.11,-5.04,1.8,27.39,80.0-90.0
80.0,1677.0,1.28,4.0,9.62,6.54,4.23,2.24,27.38,80.0-90.0
80.0,0.0,1.12,-0.24,11.13,0.3,-2.88,0.11,27.39,80.0-90.0
80.0,955.0,-2.12,-0.52,8.63,0.47,5.44,-0.23,27.37,80.0-90.0
80.0,1283.0,2.6,2.55,11.31,1.72,-4.81,2.96,27.38,80.0-90.0
80.0,1686.0,-0.64,3.41,8.88,5.2,1.53,2.32,27.39,80.0-90.0
80.0,1444.0,1.25,-1.11,11.1,-1.0,-0.34,-0.81,27.38,80.0-90.0
80.0,2608.0,-1.47,0.7,8.35,1.14,2.22,0.63,27.38,80.0-90.0
80.0,2522.0,1.8,3.14,10.99,4.44,-0.79,2.3,27.4,80.0-90.0
80.0,1040.0,-1.51,2.35,9.44,3.87,-1.76,1.1,27.39,80.0-90.0
80.0,2223.0,-0.11,-2.78,10.19,-3.51,0.95,-1.94,27.38,80.0-90.0
80.0,1911.0,0.09,1.57,9.1,1.03,-2.6,1.31,27.39,80.0-90.0
80.0,2059.0,2.22,3.8,9.78,5.88,3.1,2.41,27.39,80.0-90.0
80.0,0.0,-0.95,0.96,10.0,2.18,-0.79,0.76,27.38,80.0-90.0
80.0,1761.0,-0.98,-1.23,9.24,-1.15,3.96,-0.63,27.39,80.0-90.0
80.0,2155.0,1.44,2.5,10.14,2.54,-3.15,2.72,27.39,80.0-90.0
80.0,1568.0,0.04,3.66,9.34,6.04,3.15,2.38,27.37,80.0-90.0
80.0,1344.0,1.84,-0.9,11.29,-0.87,-1.67,-0.69,27.37,80.0-90.0
80.0,533.0,-2.06,0.24,8.46,0.56,4.1,-0.21,27.4,80.0-90.0
80.0,2928.0,2.66,2.94,10.95,4.04,-1.55,2.26,27.38,80.0-90.0
80.0,2926.0,-1.43,2.81,9.23,4.71,0.13,1.21,27.39,80.0-90.0
80.0,439.0,1.35,-2.03,10.88,-3.13,-0.22,-1.8,27.37,80.0-90.0
80.0,1955.0,-1.01,1.56,8.91,1.38,-0.16,1.46,27.37,80.0-90.0
80.0,1641.0,2.8,3.15,10.6,4.74,0.11,2.81,27.39,80.0-90.0
80.0,843.0,-1.23,1.67,9.68,2.76,-1.67,1.25,27.38,80.0-90.0
80.0,1575.0,-1.53,-2.93,9.76,-5.22,-0.25,-2.0,27.39,80.0-90.0
80.0,1249.0,0.88,2.52,9.93,2.02,-4.36,2.4,27.37,80.0-90.0
80.0,1664.0,1.39,3.57,9.86,5.58,2.85,2.12,27.37,80.0-90.0
80.0,0.0,0.53,-0.12,10.71,0.24,-2.4,-0.41,27.39,80.0-90.0
80.0,2238.0,-1.99,-3.99,9.24,-6.55,0.1,-3.08,27.39,80.0-90.0
80.0,893.0,3.03,2.53,11.0,2.57,-3.94,2.24,27.39,80.0-90.0
80.0,2405.0,-1.9,3.4,8.93,6.16,2.49,1.86,27.41,80.0-90.0
80.0,528.0,1.63,-1.75,10.81,-2.54,-1.12,-1.17,27.37,80.0-90.0
80.0,2374.0,-0.8,-4.18,9.05,-6.44,-1.24,-2.17,27.39,80.0-90.0
80.0,2453.0,3.49,3.0,10.81,5.18,0.75,2.91,27.37,80.0-90.0
80.0,2834.0,-2.51,2.13,8.89,3.46,-0.76,1.34,27.39,80.0-90.0
80.0,911.0,-0.2,-2.54,10.33,-4.58,0.18,-2.03,27.39,80.0-90.0
80.0,2111.0,0.44,-3.48,10.4,-4.93,-0.88,-2.26,27.41,80.0-90.0
80.0,2289.0,1.53,3.89,9.67,6.25,3.18,1.95,27.38,80.0-90.0
80.0,1105.0,0.1,0.78,10.54,1.26,-3.18,-0.08,27.37,80.0-90.0
80.0,679.0,-2.07,-3.84,9.43,-6.6,-0.98,-2.82,27.39,80.0-90.0
80.0,1266.0,-0.62,-2.66,10.24,-2.78,3.27,-1.6,27.37,80.0-90.0
80.0,1872.0,-0.65,3.62,9.2,5.76,2.3,2.2,27.36,80.0-90.0
80.0,0.0,1.79,-1.46,11.29,-1.7,-1.5,-0.64,27.39,80.0-90.0
80.0,1612.0,-1.35,-3.88,8.9,-6.29,-1.76,-2.15,27.39,80.0-90.0
80.0,1743.0,-1.69,-0.79,8.78,-0.4,6.13,-0.73,27.37,80.0-90.0
80.0,2927.0,-1.8,2.63,9.01,4.04,-1.23,1.39,27.4,80.0-90.0
80.0,0.0,0.3,-1.98,10.34,-2.78,0.8,-1.94,27.38,80.0-90.0
80.0,1994.0,-0.24,-3.86,10.04,-5.77,-1.73,-2.62,27.38,80.0-90.0
80.0,1627.0,-2.39,0.71,7.81,1.0,4.05,-0.05,27.38,80.0-90.0
80.0,2821.0,-0.44,1.16,10.09,2.34,-2.65,0.44,27.39,80.0-90.0
80.0,698.0,-1.85,-3.11,9.64,-5.28,-0.07,-2.38,27.39,80.0-90.0
80.0,1807.0,0.2,-3.25,10.61,-4.4,0.79,-1.65,27.38,80.0-90.0
80.0,836.0,-0.81,1.3,8.6,0.88,-1.02,1.6,27.39,80.0-90.0
80.0,1656.0,1.03,-0.65,11.05,-0.52,-1.32,-0.2,27.38,80.0-90.0
80.0,0.0,-3.06,-3.79,8.97,-6.09,-0.28,-2.47,27.39,80.0-90.0
80.0,791.0,-0.21,-1.56,9.55,-1.79,3.81,-1.25,27.38,80.0-90.0
80.0,2927.0,0.92,2.16,10.18,1.95,-4.13,2.0,27.37,80.0-90.0
80.0,1017.0,0.87,-1.83,10.53,-2.48,0.21,-1.91,27.39,80.0-90.0
80.0,2047.0,-0.94,-3.8,9.69,-6.11,-1.35,-2.55,27.39,80.0-90.0
80.0,839.0,-1.54,0.02,8.52,0.16,3.94,0.02,27.39,80.0-90.0
80.0,2250.0,2.57,2.7,11.27,3.5,-2.14,2.66,27.39,80.0-90.0
80.0,66.0,-1.78,-3.02,9.48,-5.12,1.3,-2.24,27.38,80.0-90.0
80.0,2202.0,0.09,-3.11,10.61,-4.11,1.37,-1.51,27.39,80.0-90.0
80.0,2356.0,-0.66,1.21,8.76,0.85,-0.88,1.59,27.36,80.0-90.0
80.0,2325.0,2.92,3.69,10.03,6.3,2.43,2.47,27.4,80.0-90.0
80.0,0.0,-2.22,-4.06,8.69,-6.38,-0.63,-2.7,27.37,80.0-90.0
80.0,1517.0,-1.03,-1.24,9.17,-0.74,6.03,-1.45,27.39,80.0-90.0
80.0,1358.0,1.31,2.45,10.34,2.86,-3.46,2.14,27.36,80.0-90.0
80.0,1260.0,-0.34,3.94,8.81,6.25,2.4,1.98,27.39,80.0-90.0
80.0,1636.0,-0.26,-3.94,9.67,-5.94,-1.93,-2.56,27.37,80.0-90.0
80.0,752.0,-2.17,0.52,7.87,0.83,5.0,0.23,27.37,80.0-90.0
80.0,2522.0,2.17,2.78,11.43,4.1,-1.32,2.84,27.38,80.0-90.0
80.0,304.0,-2.45,2.81,8.81,4.13,-0.42,1.89,27.4,80.0-90.0
80.0,2192.0,0.29,-3.23,10.9,-4.19,1.11,-1.48,27.38,80.0-90.0
80.0,1906.0,-0.75,1.52,8.51,1.61,-1.27,1.62,27.39,80.0-90.0
80.0,2073.0,2.99,3.7,10.2,5.52,1.64,2.49,27.39,80.0-90.0
80.0,964.0,-0.21,1.12,10.37,1.67,-3.52,0.37,27.39,80.0-90.0
80.0,2557.0,-0.82,-1.63,9.56,-1.41,5.3,-1.56,27.37,80.0-90.0
80.0,2001.0,1.57,2.33,10.43,2.21,-4.63,2.03,27.38,80.0-90.0
80.0,2395.0,-0.11,3.81,8.84,5.84,1.99,2.0,27.37,80.0-90.0
80.0,0.0,1.14,-0.4,11.2,-0.31,-1.59,-0.41,27.39,80.0-90.0
80.0,1324.0,-2.57,0.44,7.88,1.0,5.55,0.29,27.4,80.0-90.0
80.0,1699.0,2.45,2.92,11.57,3.87,-2.16,3.04,27.39,80.0-90.0
80.0,624.0,-1.53,2.69,9.01,3.76,-1.92,1.89,27.39,80.0-90.0
