Speed,Voice,Acceleration X,Acceleration Y,Acceleration Z,Gyro X,Gyro Y,Gyro Z,Temperature,Speed_Range
80.0,1930.0,0.88,0.89,9.95,2.07,-4.62,2.1,17.69,80.0-90.0
80.0,1598.0,0.53,-2.12,9.82,-0.66,-1.36,-1.38,17.69,80.0-90.0
80.0,1600.0,0.08,1.79,9.88,4.22,-1.05,1.47,17.68,80.0-90.0
80.0,1616.0,-0.29,0.21,8.88,1.81,0.76,-2.27,17.68,80.0-90.0
80.0,1533.0,0.34,-0.51,11.4,-0.6,-4.64,1.34,17.68,80.0-90.0
80.0,1493.0,-0.72,-4.59,10.8,-4.34,-3.02,-2.56,17.7,80.0-90.0
80.0,948.0,0.37,0.11,11.22,0.86,-5.65,1.85,17.69,80.0-90.0
80.0,589.0,-0.7,-3.98,10.21,-2.72,-1.54,-1.12,17.69,80.0-90.0
80.0,726.0,0.71,0.46,10.09,-2.19,1.72,2.31,17.7,80.0-90.0
80.0,1261.0,-0.58,-0.59,9.51,-0.62,-0.57,1.47,17.7,80.0-90.0
80.0,1075.0,0.56,0.15,10.1,-2.8,0.87,2.53,17.7,80.0-90.0
80.0,1201.0,0.02,-1.1,10.37,-1.24,-2.82,0.59,17.7,80.0-90.0
80.0,1366.0,-0.4,2.34,7.07,1.99,8.42,-3.32,17.7,80.0-90.0
80.0,1006.0,0.32,2.99,11.1,4.88,-2.98,1.66,17.7,80.0-90.0
80.0,1519.0,-0.36,2.54,5.88,3.0,10.57,-4.54,17.69,80.0-90.0
80.0,30.0,0.98,2.7,11.93,3.35,-5.17,2.28,17.66,80.0-90.0
80.0,496.0,-2.5,-4.5,9.62,-2.98,-4.3,-1.41,17.69,80.0-90.0
80.0,1664.0,1.34,-1.65,12.35,-4.48,3.57,0.27,17.67,80.0-90.0
80.0,1344.0,0.09,-5.3,8.29,-3.51,-2.85,-0.31,17.7,80.0-90.0
80.0,1140.0,0.14,-0.84,13.03,-5.09,2.76,-0.33,17.68,80.0-90.0
80.0,1562.0,-2.79,4.1,7.84,6.97,3.69,3.96,17.66,80.0-90.0
80.0,1328.0,1.94,-2.2,11.17,-0.05,-4.87,-2.68,17.69,80.0-90.0
80.0,0.0,0.2,3.51,11.42,7.82,7.17,2.63,17.68,80.0-90.0
80.0,1227.0,-3.61,-2.39,10.6,-2.98,-11.96,-2.71,17.68,80.0-90.0
80.0,1204.0,-0.06,-0.38,10.28,0.09,16.04,-1.59,17.68,80.0-90.0
80.0,1638.0,-0.98,2.06,11.97,0.77,-18.4,3.38,17.69,80.0-90.0
80.0,2004.0,2.87,-0.79,13.57,-2.39,11.99,-1.91,17.68,80.0-90.0
80.0,821.0,-4.52,4.22,8.28,5.0,-7.07,5.36,17.67,80.0-90.0
80.0,0.0,0.97,-3.81,12.16,-1.52,-0.6,-1.47,17.68,80.0-90.0
80.0,1556.0,-4.29,0.48,9.14,-1.41,8.7,1.17,17.65,80.0-90.0
80.0,1725.0,-1.72,-3.53,8.44,-4.29,-10.77,-1.49,17.67,80.0-90.0
80.0,1745.0,0.5,-0.78,12.24,-1.53,14.51,-2.25,17.69,80.0-90.0
80.0,1136.0,-3.18,3.72,9.69,4.72,-10.3,3.79,17.71,80.0-90.0
80.0,0.0,-0.43,-3.79,12.36,-1.47,1.08,-3.0,17.7,80.0-90.0
80.0,816.0,-0.71,2.87,12.66,4.97,-0.23,3.32,17.68,80.0-90.0
80.0,1725.0,-0.72,-3.09,7.58,-4.06,-9.78,-1.38,17.69,80.0-90.0
80.0,713.0,0.34,0.63,11.0,-1.82,14.11,-1.49,17.68,80.0-90.0
80.0,1623.0,-3.64,3.2,11.83,4.54,-6.94,4.92,17.69,80.0-90.0
80.0,0.0,-0.24,1.4,4.51,-1.01,10.54,-3.29,17.7,80.0-90.0
80.0,1200.0,3.85,1.9,13.13,2.18,-4.44,2.92,17.69,80.0-90.0
80.0,2410.0,-0.28,-3.2,6.23,-2.48,-5.33,-2.37,17.7,80.0-90.0
80.0,1138.0,1.04,1.77,6.98,-0.62,10.53,-3.84,17.71,80.0-90.0
80.0,1180.0,2.67,-1.36,12.55,2.18,-6.0,-0.69,17.71,80.0-90.0
80.0,0.0,-2.12,0.5,2.61,2.48,12.31,-3.61,17.68,80.0-90.0
80.0,1016.0,5.08,1.36,10.69,-2.02,-7.43,2.65,17.68,80.0-90.0
80.0,1670.0,2.02,-1.97,11.77,1.15,-3.56,0.22,17.7,80.0-90.0
80.0,1283.0,-4.12,-0.15,10.36,-1.94,7.77,1.23,17.7,80.0-90.0
80.0,999.0,2.18,3.09,9.61,4.53,-14.48,4.19,17.69,80.0-90.0
80.0,0.0,0.71,-3.51,10.47,-0.16,8.36,-1.85,17.69,80.0-90.0
80.0,1900.0,-3.11,-0.35,8.66,-3.18,1.92,-0.24,17.69,80.0-90.0
80.0,603.0,-0.38,-3.99,8.15,-6.57,-10.25,-1.88,17.69,80.0-90.0
80.0,558.0,0.66,0.39,14.0,-1.35,14.13,-4.1,17.67,80.0-90.0
80.0,0.0,-6.22,3.82,11.12,7.55,-3.89,3.43,17.69,80.0-90.0
80.0,64.0,0.72,-4.68,8.49,-7.31,-11.46,-0.98,17.7,80.0-90.0
80.0,2323.0,6.15,1.16,14.71,0.13,-6.7,3.52,17.67,80.0-90.0
80.0,926.0,-1.41,-3.69,8.45,-2.05,-2.14,-0.13,17.7,80.0-90.0
80.0,1721.0,-1.17,2.95,2.48,1.02,11.09,-2.25,17.68,80.0-90.0
80.0,0.0,6.0,1.26,15.92,1.83,-4.9,3.88,17.69,80.0-90.0
80.0,2067.0,-2.78,-1.64,6.92,3.2,16.27,-2.19,17.69,80.0-90.0
80.0,425.0,-0.33,-0.0,8.63,-4.37,-6.94,0.31,17.69,80.0-90.0
80.0,1333.0,5.07,1.5,12.41,4.63,-8.22,0.39,17.67,80.0-90.0
80.0,1724.0,-2.34,-1.54,6.6,2.05,13.63,-3.7,17.67,80.0-90.0
80.0,0.0,-4.48,4.39,9.48,7.0,-9.49,3.85,17.7,80.0-90.0
80.0,2237.0,1.11,-4.81,10.73,-6.55,-6.24,-1.18,17.69,80.0-90.0
80.0,1664.0,-2.05,-0.22,13.99,-1.81,12.91,-1.55,17.7,80.0-90.0
80.0,1869.0,-4.18,4.24,9.57,7.01,-8.85,6.07,17.7,80.0-90.0
80.0,0.0,0.49,2.7,3.54,0.97,10.19,-2.28,17.69,80.0-90.0
80.0,1308.0,3.44,1.06,15.67,1.78,-5.17,3.88,17.69,80.0-90.0
80.0,1925.0,-2.7,-3.93,6.59,-3.0,-4.15,-1.4,17.7,80.0-90.0
80.0,511.0,1.53,2.69,4.55,1.0,8.96,-4.05,17.69,80.0-90.0
80.0,2354.0,4.33,0.62,13.74,3.96,-7.26,0.1,17.71,80.0-90.0
80.0,0.0,-3.21,-0.41,4.59,3.4,15.64,-3.59,17.7,80.0-90.0
80.0,2062.0,1.75,0.61,9.48,-4.35,-8.5,1.12,17.7,80.0-90.0
80.0,2928.0,3.65,-0.27,13.18,2.39,-5.65,1.11,17.69,80.0-90.0
80.0,1171.0,-3.54,-1.1,12.59,-3.24,10.53,-1.2,17.69,80.0-90.0
80.0,0.0,-1.82,4.33,9.13,5.87,-11.83,5.35,17.69,80.0-90.0
80.0,1739.0,1.44,-4.65,11.61,-4.32,-0.11,-0.97,17.67,80.0-90.0
80.0,1782.0,-3.94,-0.79,11.95,-2.51,10.76,-1.88,17.7,80.0-90.0
80.0,698.0,-1.51,-3.54,6.61,-3.99,-7.43,-1.58,17.67,80.0-90.0
80.0,1711.0,1.87,2.0,6.26,0.47,11.54,-4.57,17.69,80.0-90.0
80.0,0.0,0.53,1.63,15.7,3.4,-3.53,2.71,17.68,80.0-90.0
80.0,1811.0,-2.6,-3.57,5.86,-4.28,-5.83,-1.38,17.68,80.0-90.0
80.0,2433.0,3.43,0.36,9.88,-5.04,-8.96,2.07,17.68,80.0-90.0
80.0,1335.0,3.04,-0.18,13.0,2.95,-3.16,1.24,17.67,80.0-90.0
80.0,1535.0,-3.99,0.46,3.87,3.18,12.63,-1.41,17.69,80.0-90.0
80.0,0.0,4.59,0.53,9.54,-4.74,-8.9,2.02,17.67,80.0-90.0
80.0,2736.0,2.46,-4.78,12.34,-4.66,0.14,-1.7,17.69,80.0-90.0
80.0,331.0,-4.59,-0.81,11.76,-1.74,10.97,-2.46,17.67,80.0-90.0
80.0,1825.0,-0.45,4.51,7.93,7.55,-12.21,3.11,17.69,80.0-90.0
80.0,0.0,2.59,-4.44,11.96,-3.0,0.9,-2.46,17.67,80.0-90.0
80.0,752.0,-1.84,2.05,15.25,5.35,-3.25,3.76,17.69,80.0-90.0
80.0,2297.0,-2.87,-4.41,6.32,-6.48,-8.56,-1.05,17.69,80.0-90.0
80.0,676.0,1.52,1.53,12.28,-1.27,11.58,-1.67,17.7,80.0-90.0
80.0,1607.0,-4.56,3.24,12.14,7.17,-2.98,5.36,17.69,80.0-90.0
80.0,0.0,-2.79,3.08,1.98,2.33,10.27,-2.01,17.68,80.0-90.0
80.0,1439.0,6.68,0.84,14.44,-0.83,-8.76,2.95,17.7,80.0-90.0
80.0,1535.0,-1.27,-3.86,8.03,-2.0,-0.03,-2.6,17.68,80.0-90.0
80.0,1558.0,-1.09,3.24,3.14,1.15,7.57,-4.11,17.68,80.0-90.0
80.0,1616.0,5.05,0.39,13.41,2.63,-10.33,0.33,17.67,80.0-90.0
80.0,0.0,-1.93,-0.18,4.97,4.07,15.53,-3.18,17.68,80.0-90.0
80.0,1895.0,0.68,0.85,9.38,-3.15,-7.17,2.05,17.68,80.0-90.0
80.0,1052.0,3.7,-1.49,14.07,1.15,-7.07,1.35,17.67,80.0-90.0
80.0,1397.0,-3.62,-1.69,11.96,-3.55,11.92,-0.42,17.7,80.0-90.0
80.0,0.0,-0.52,4.23,9.39,4.88,-14.62,4.77,17.67,80.0-90.0
80.0,838.0,0.23,-3.35,12.17,-0.8,4.56,-1.34,17.71,80.0-90.0
80.0,1387.0,-4.17,-1.2,10.71,-3.71,6.01,-1.34,17.68,80.0-90.0
80.0,2429.0,-0.8,-3.13,6.18,-4.8,-9.29,-1.67,17.66,80.0-90.0
80.0,1269.0,2.47,-0.0,10.29,-2.34,11.92,-5.0,17.67,80.0-90.0
80.0,0.0,-3.76,3.84,12.02,6.51,-0.69,2.85,17.68,80.0-90.0
80.0,1535.0,0.21,-3.05,7.42,-4.05,-10.7,-0.05,17.71,80.0-90.0
80.0,797.0,5.06,1.96,11.71,0.06,-2.96,2.66,17.69,80.0-90.0
80.0,1582.0,0.37,-2.19,11.39,0.25,-5.51,1.38,17.69,80.0-90.0
80.0,1525.0,-2.16,0.51,2.5,1.05,10.99,-2.62,17.67,80.0-90.0
80.0,0.0,5.56,1.74,12.35,-0.08,-4.91,2.4,17.67,80.0-90.0
80.0,1535.0,-1.04,-2.76,10.6,0.94,7.74,-1.79,17.67,80.0-90.0
80.0,1766.0,-3.45,-0.67,9.92,-3.24,2.73,-0.8,17.7,80.0-90.0
80.0,1535.0,2.89,2.57,10.89,3.87,-11.25,2.46,17.67,80.0-90.0
80.0,0.0,-1.26,-2.95,10.67,0.38,6.1,-2.36,17.69,80.0-90.0
80.0,589.0,-3.87,3.68,12.09,5.81,-2.91,3.41,17.69,80.0-90.0
80.0,1867.0,1.22,-3.14,7.31,-4.84,-10.82,0.07,17.67,80.0-90.0
80.0,827.0,0.99,-0.35,10.21,-3.15,13.5,-3.32,17.68,80.0-90.0
80.0,1429.0,-3.13,3.55,12.81,5.53,-3.51,4.08,17.68,80.0-90.0
80.0,72.0,-2.33,0.19,2.82,0.73,11.83,-3.33,17.68,80.0-90.0
80.0,1968.0,5.23,1.91,12.33,0.3,-4.65,2.22,17.68,80.0-90.0
80.0,2199.0,-0.42,-2.01,11.73,1.18,-4.46,0.6,17.69,80.0-90.0
80.0,1431.0,-1.98,0.32,2.63,1.41,10.1,-4.1,17.69,80.0-90.0
80.0,736.0,2.82,3.53,10.52,4.63,-12.97,3.41,17.67,80.0-90.0
80.0,829.0,-0.61,-3.06,11.44,0.16,5.45,-1.5,17.69,80.0-90.0
80.0,1663.0,-4.8,-1.55,10.14,-4.86,6.32,-1.27,17.69,80.0-90.0
80.0,1286.0,1.95,3.98,10.33,4.42,-12.79,4.2,17.69,80.0-90.0
80.0,0.0,2.34,-0.37,8.2,-3.48,12.47,-4.36,17.66,80.0-90.0
80.0,287.0,-1.05,3.16,13.52,4.97,-1.21,3.49,17.67,80.0-90.0
80.0,2127.0,-1.34,-2.73,6.81,-3.16,-9.63,0.16,17.69,80.0-90.0
80.0,1456.0,2.68,-0.08,6.27,-1.46,11.86,-4.83,17.69,80.0-90.0
80.0,1494.0,2.25,0.75,12.73,3.55,-6.56,1.9,17.68,80.0-90.0
80.0,0.0,-2.91,-2.0,6.72,1.98,9.15,-2.56,17.67,80.0-90.0
80.0,1975.0,0.01,0.06,9.16,-3.87,0.01,0.25,17.67,80.0-90.0
80.0,2026.0,4.02,2.58,11.84,5.05,-9.58,2.95,17.7,80.0-90.0
80.0,797.0,-1.43,-0.74,12.52,-3.21,14.74,-3.17,17.67,80.0-90.0
80.0,689.0,-4.48,4.76,11.37,7.35,-6.81,5.06,17.69,80.0-90.0
80.0,1765.0,2.05,-3.4,7.3,-5.22,-9.42,0.01,17.69,80.0-90.0
80.0,1680.0,0.55,-0.55,12.24,-3.33,14.72,-4.6,17.68,80.0-90.0
80.0,1255.0,-2.07,-2.12,11.3,0.39,-3.24,-0.85,17.69,80.0-90.0
80.0,0.0,-2.42,0.42,2.64,1.17,10.56,-4.75,17.69,80.0-90.0
80.0,641.0,6.19,1.33,11.83,-1.58,-5.11,0.98,17.67,80.0-90.0
80.0,1889.0,-0.07,-1.1,12.33,1.78,-3.48,-0.19,17.69,80.0-90.0
80.0,211.0,-4.92,-1.1,11.14,-3.29,7.6,-1.67,17.66,80.0-90.0
80.0,1264.0,1.12,4.13,8.68,6.89,-13.52,5.03,17.68,80.0-90.0
80.0,0.0,1.76,-4.59,11.72,-3.82,0.79,-0.3,17.7,80.0-90.0
80.0,2395.0,-4.75,-0.96,12.3,-2.77,10.86,-0.83,17.67,80.0-90.0
80.0,1639.0,-2.27,-3.68,5.88,-4.84,-7.89,-0.13,17.67,80.0-90.0
80.0,1488.0,3.01,2.38,5.84,0.15,11.89,-3.84,17.68,80.0-90.0
80.0,0.0,0.41,1.94,16.33,4.07,-4.06,3.33,17.69,80.0-90.0
80.0,1453.0,-3.16,-3.8,5.56,-4.52,-6.12,-2.27,17.67,80.0-90.0
80.0,1462.0,3.12,0.45,9.13,-5.13,-10.12,0.48,17.68,80.0-90.0
80.0,2243.0,3.87,-0.02,13.69,3.02,-3.27,-0.54,17.66,80.0-90.0
80.0,338.0,-4.27,-0.32,4.19,3.15,14.33,-2.86,17.69,80.0-90.0
80.0,0.0,2.34,0.55,9.07,-4.6,-8.51,2.01,17.68,80.0-90.0
80.0,2927.0,2.81,-4.39,11.96,-4.17,-2.66,-0.22,17.7,80.0-90.0
80.0,1520.0,-3.46,-1.48,12.62,-2.32,11.78,-0.74,17.67,80.0-90.0
80.0,1073.0,-2.03,4.13,8.71,6.25,-12.39,5.1,17.67,80.0-90.0
80.0,0.0,1.13,-3.91,11.68,-1.97,1.6,-1.47,17.68,80.0-90.0
80.0,1531.0,-0.37,2.67,13.91,5.38,-2.44,3.2,17.68,80.0-90.0
80.0,1817.0,-1.12,-2.86,5.82,-3.76,-7.87,-1.21,17.69,80.0-90.0
80.0,1017.0,2.42,1.33,8.77,-1.42,11.02,-4.34,17.68,80.0-90.0
80.0,498.0,-1.97,3.04,13.78,5.38,-1.3,3.26,17.7,80.0-90.0
80.0,0.0,-3.07,0.61,2.67,2.39,11.72,-3.27,17.69,80.0-90.0
80.0,1702.0,4.73,0.89,10.85,-3.58,-7.77,2.16,17.7,80.0-90.0
80.0,1323.0,1.59,-1.3,13.6,1.46,-3.48,0.4,17.67,80.0-90.0
80.0,1361.0,-3.94,0.61,2.37,3.43,13.03,-2.8,17.69,80.0-90.0
80.0,441.0,1.08,4.99,7.6,7.35,-12.56,4.2,17.69,80.0-90.0
80.0,1111.0,1.69,-4.55,13.15,-2.42,2.96,-1.27,17.69,80.0-90.0
80.0,2454.0,-5.57,-2.0,11.38,-3.59,8.19,-1.93,17.7,80.0-90.0
80.0,2423.0,1.15,5.22,7.57,7.24,-13.64,4.16,17.69,80.0-90.0
80.0,563.0,3.37,1.36,9.87,-1.01,11.31,-4.02,17.67,80.0-90.0
80.0,160.0,-2.63,3.31,13.81,6.74,0.7,4.13,17.69,80.0-90.0
80.0,1497.0,-1.8,-3.65,5.69,-6.22,-11.6,-0.47,17.69,80.0-90.0
80.0,1939.0,2.46,0.41,10.68,-2.65,10.63,-3.17,17.69,80.0-90.0
80.0,2129.0,1.84,-2.35,12.31,0.3,-3.77,-0.13,17.69,80.0-90.0
80.0,0.0,-3.42,1.03,2.33,1.43,11.64,-3.44,17.67,80.0-90.0
80.0,129.0,6.26,1.08,12.44,-1.07,-6.61,1.59,17.67,80.0-90.0
80.0,2221.0,-0.46,-2.07,10.09,0.83,-2.56,-0.82,17.7,80.0-90.0
80.0,1576.0,-3.34,-0.56,10.02,-3.15,2.24,-0.3,17.68,80.0-90.0
80.0,722.0,3.12,2.56,10.93,4.88,-12.24,3.14,17.69,80.0-90.0
80.0,656.0,-0.69,-3.07,9.8,0.47,8.74,-1.76,17.68,80.0-90.0
80.0,1219.0,-3.28,-0.35,9.56,-3.67,1.77,0.51,17.68,80.0-90.0
80.0,1898.0,0.1,-4.08,7.82,-6.55,-8.85,-0.24,17.65,80.0-90.0
80.0,1942.0,0.5,0.94,12.36,-1.42,13.11,-2.57,17.66,80.0-90.0
80.0,259.0,-4.69,3.7,12.12,7.44,-4.62,4.49,17.68,80.0-90.0
80.0,0.0,-0.4,-4.41,7.43,-7.5,-9.86,-1.4,17.69,80.0-90.0
80.0,1913.0,6.98,0.85,13.87,-1.79,-9.26,2.1,17.67,80.0-90.0
80.0,2452.0,-1.69,-3.38,10.28,-0.78,0.85,-2.42,17.69,80.0-90.0
80.0,1675.0,-2.27,2.92,1.55,2.76,9.12,-3.32,17.67,80.0-90.0
80.0,0.0,7.23,0.71,14.62,-1.0,-7.94,3.09,17.68,80.0-90.0
80.0,1710.0,0.34,-2.68,9.19,2.07,12.37,-1.67,17.68,80.0-90.0
80.0,1695.0,-2.8,-1.16,7.71,-5.16,-1.21,0.6,17.67,80.0-90.0
80.0,1834.0,4.89,2.48,11.66,4.31,-11.64,2.46,17.67,80.0-90.0
80.0,596.0,0.2,-0.9,15.75,-2.0,13.96,-2.39,17.67,80.0-90.0
80.0,0.0,-6.19,5.57,8.24,8.91,-5.72,4.97,17.68,80.0-90.0
80.0,1763.0,1.59,-4.91,11.09,-6.67,-8.36,-1.34,17.69,80.0-90.0
80.0,1793.0,-1.9,-2.02,14.32,-2.83,14.19,-3.47,17.68,80.0-90.0
80.0,1360.0,-2.47,-3.92,6.1,-3.7,-5.62,-1.78,17.67,80.0-90.0
80.0,0.0,1.34,1.84,5.63,-1.0,7.34,-3.72,17.7,80.0-90.0
80.0,0.0,2.75,2.44,14.79,4.63,-1.11,3.43,17.69,80.0-90.0
80.0,2453.0,-2.49,-3.3,5.98,-3.88,-5.83,-0.88,17.67,80.0-90.0
80.0,134.0,2.2,0.63,9.5,-3.1,-6.44,1.55,17.68,80.0-90.0
80.0,1571.0,2.67,-0.17,12.87,2.41,-5.48,1.21,17.68,80.0-90.0
80.0,50.0,-2.38,-0.78,4.99,2.7,10.33,-2.39,17.67,80.0-90.0
80.0,1105.0,2.5,0.86,9.23,-3.29,-3.89,1.34,17.67,80.0-90.0
80.0,1943.0,1.57,-4.16,11.27,-3.99,-2.21,-1.05,17.68,80.0-90.0
80.0,999.0,-3.65,-0.67,12.08,-2.48,13.17,-2.34,17.69,80.0-90.0
80.0,0.0,-2.18,4.27,9.96,6.66,-12.28,4.46,17.67,80.0-90.0
80.0,946.0,1.51,-4.45,9.91,-5.51,-2.96,-1.4,17.66,80.0-90.0
80.0,1155.0,2.88,1.35,15.71,1.08,-6.71,3.26,17.67,80.0-90.0
80.0,976.0,-3.26,-3.38,7.89,-2.89,-2.84,-0.76,17.68,80.0-90.0
80.0,838.0,0.97,2.57,3.15,1.12,10.36,-3.38,17.67,80.0-90.0
80.0,0.0,4.51,1.34,15.98,1.38,-6.06,3.85,17.69,80.0-90.0
80.0,2025.0,-2.3,-2.33,8.02,2.86,13.72,-1.93,17.7,80.0-90.0
80.0,185.0,-1.41,-0.85,7.26,-6.0,-5.52,0.48,17.7,80.0-90.0
80.0,1069.0,6.94,2.99,11.67,5.43,-10.33,1.87,17.65,80.0-90.0
80.0,0.0,-2.73,-2.0,8.74,3.26,14.94,-2.3,17.69,80.0-90.0
80.0,1023.0,-6.26,5.62,10.3,9.82,-7.65,4.97,17.69,80.0-90.0
80.0,2123.0,1.97,-4.87,7.58,-7.96,-10.64,-1.05,17.65,80.0-90.0
80.0,0.0,0.8,-0.75,14.79,-3.27,14.43,-4.6,17.69,80.0-90.0
80.0,1296.0,-6.27,5.21,10.46,9.73,-4.3,5.3,17.67,80.0-90.0
80.0,0.0,-2.28,2.77,1.18,2.68,9.81,-3.46,17.69,80.0-90.0
80.0,2731.0,7.62,1.35,14.43,-0.72,-8.58,3.46,17.69,80.0-90.0
80.0,2027.0,-2.58,-3.44,10.8,-1.27,-0.18,-1.17,17.67,80.0-90.0
80.0,1195.0,-3.02,2.08,1.79,3.06,10.82,-3.58,17.67,80.0-90.0
80.0,0.0,4.4,3.42,9.71,6.05,-10.96,2.8,17.69,80.0-90.0
80.0,1647.0,-0.19,-2.73,10.79,1.47,8.29,-1.41,17.67,80.0-90.0
80.0,2194.0,-3.89,-1.36,9.24,-4.9,2.67,-0.66,17.68,80.0-90.0
80.0,2096.0,3.96,4.06,9.65,6.31,-13.87,4.05,17.68,80.0-90.0
80.0,0.0,1.48,0.36,11.08,-1.79,15.09,-3.82,17.67,80.0-90.0
80.0,0.0,-4.35,3.4,13.56,6.51,-4.35,5.03,17.68,80.0-90.0
80.0,2397.0,0.03,-4.12,6.42,-6.41,-9.96,-0.28,17.69,80.0-90.0
80.0,486.0,2.15,1.27,10.1,-1.55,13.15,-3.82,17.67,80.0-90.0
80.0,1216.0,0.33,-1.43,12.64,1.14,-1.62,-0.77,17.67,80.0-90.0
80.0,0.0,-4.26,1.27,1.88,3.58,13.2,-3.65,17.69,80.0-90.0
80.0,1755.0,6.57,0.42,11.6,-3.76,-10.83,1.55,17.67,80.0-90.0
80.0,1409.0,0.78,-1.74,12.81,1.29,0.27,-1.14,17.66,80.0-90.0
80.0,1344.0,-5.41,-1.96,10.98,-4.2,6.32,-1.49,17.66,80.0-90.0
80.0,802.0,1.4,4.65,8.0,6.8,-12.33,4.3,17.68,80.0-90.0
80.0,0.0,1.85,-3.88,12.18,-1.91,3.77,-0.69,17.67,80.0-90.0
80.0,2195.0,-5.24,-1.43,11.33,-3.24,8.15,-0.6,17.69,80.0-90.0
80.0,2276.0,-1.73,-4.07,6.02,-5.8,-10.36,-0.24,17.69,80.0-90.0
80.0,614.0,2.18,1.22,10.05,-1.32,12.56,-3.59,17.67,80.0-90.0
80.0,0.0,-2.98,3.17,13.75,6.57,-3.42,4.02,17.65,80.0-90.0
80.0,1642.0,-1.48,-3.92,6.12,-6.03,-8.42,-1.7,17.68,80.0-90.0
80.0,542.0,6.06,1.29,12.04,-1.85,-9.58,1.79,17.66,80.0-90.0
80.0,2595.0,0.62,-1.87,10.51,0.82,-0.92,-1.0,17.67,80.0-90.0
80.0,339.0,-2.48,0.92,3.65,1.02,9.57,-3.33,17.68,80.0-90.0
80.0,623.0,5.46,1.48,11.77,-1.2,-5.65,2.13,17.66,80.0-90.0
80.0,1332.0,0.34,-3.39,9.9,-1.35,6.47,-1.88,17.67,80.0-90.0
80.0,1696.0,-3.2,0.45,10.36,-1.61,4.65,0.3,17.68,80.0-90.0
80.0,1221.0,2.21,2.39,10.13,5.21,-12.67,3.33,17.68,80.0-90.0
80.0,663.0,1.11,-3.65,9.17,-1.81,5.86,-2.78,17.67,80.0-90.0
80.0,1297.0,-2.85,2.22,13.69,4.77,-6.74,3.56,17.67,80.0-90.0
80.0,1937.0,-1.99,-4.08,8.25,-5.0,-5.62,-1.85,17.67,80.0-90.0
80.0,1685.0,-0.01,1.13,12.02,-0.94,11.93,-2.37,17.68,80.0-90.0
80.0,1300.0,-3.49,2.98,12.42,5.93,-7.31,4.46,17.67,80.0-90.0
80.0,181.0,-1.88,2.11,3.15,1.46,11.5,-2.88,17.67,80.0-90.0
80.0,1555.0,4.97,0.87,14.08,-1.09,-8.36,3.23,17.67,80.0-90.0
80.0,1648.0,-1.29,-2.79,8.75,-0.98,0.2,-0.91,17.68,80.0-90.0
80.0,1674.0,-1.07,2.78,2.6,1.75,8.86,-2.77,17.68,80.0-90.0
80.0,0.0,4.83,2.54,11.0,5.2,-9.29,2.16,17.67,80.0-90.0
80.0,0.0,-1.04,-2.2,7.71,2.41,12.8,-2.62,17.66,80.0-90.0
80.0,2437.0,-1.42,-0.73,7.71,-5.32,-3.88,-0.16,17.69,80.0-90.0
80.0,614.0,5.69,1.49,12.33,3.89,-9.43,0.94,17.68,80.0-90.0
80.0,2245.0,-1.47,-0.93,14.63,-2.02,15.24,-3.09,17.65,80.0-90.0
80.0,0.0,-5.04,4.81,9.58,7.52,-9.78,5.03,17.66,80.0-90.0
80.0,1085.0,1.39,-4.27,10.2,-5.32,-5.28,-0.94,17.67,80.0-90.0
80.0,2227.0,-1.82,-0.96,13.26,-1.91,13.58,-1.95,17.69,80.0-90.0
80.0,2103.0,-0.39,0.93,9.83,3.17,-1.01,0.94,17.44,80.0-90.0
80.0,966.0,-0.04,0.23,8.67,0.41,-0.12,-1.35,17.44,80.0-90.0
80.0,1600.0,0.71,-0.46,10.94,-0.77,-5.3,2.37,17.47,80.0-90.0
80.0,1648.0,0.47,-2.73,10.29,-2.4,-1.42,-2.02,17.45,80.0-90.0
80.0,1661.0,0.52,-0.5,10.8,1.18,-3.25,0.92,17.47,80.0-90.0
80.0,1046.0,-0.41,-1.83,9.46,-0.59,0.52,-2.4,17.47,80.0-90.0
80.0,1202.0,0.29,0.41,10.99,-1.01,-2.21,1.91,17.47,80.0-90.0
80.0,201.0,-0.43,-2.82,10.12,-2.43,-1.57,-1.09,17.47,80.0-90.0
80.0,1007.0,0.35,0.06,11.49,-1.52,-3.86,3.26,17.45,80.0-90.0
80.0,879.0,-0.71,-3.4,10.47,-3.09,-1.94,-0.5,17.46,80.0-90.0
80.0,1112.0,-1.2,2.4,9.71,0.89,4.96,0.83,17.46,80.0-90.0
80.0,1279.0,-0.56,1.92,8.87,4.04,-0.32,1.5,17.47,80.0-90.0
80.0,1220.0,-1.25,2.37,9.99,0.68,5.14,-0.11,17.46,80.0-90.0
80.0,1386.0,-0.73,2.19,8.85,4.82,0.03,0.74,17.46,80.0-90.0
80.0,1742.0,1.06,-0.87,8.49,0.36,1.68,-3.52,17.45,80.0-90.0
80.0,1093.0,-1.05,0.39,11.52,-1.56,-4.81,2.34,17.46,80.0-90.0
80.0,464.0,1.64,-1.58,9.03,-0.74,-0.52,-2.89,17.47,80.0-90.0
80.0,1178.0,-0.88,0.89,10.53,-1.29,-1.24,2.75,17.48,80.0-90.0
80.0,1061.0,2.61,-3.45,10.35,-2.23,-4.46,-0.94,17.49,80.0-90.0
80.0,1088.0,-3.42,2.87,7.9,0.53,8.82,-1.01,17.45,80.0-90.0
80.0,1252.0,3.02,-2.82,10.3,-2.13,-7.34,-0.65,17.44,80.0-90.0
80.0,1760.0,-2.68,2.75,5.73,1.35,11.46,-2.34,17.45,80.0-90.0
80.0,1246.0,2.42,0.89,14.08,3.15,-5.55,3.14,17.46,80.0-90.0
80.0,575.0,-5.22,-3.6,8.87,-3.29,-4.81,-2.62,17.45,80.0-90.0
80.0,528.0,2.32,0.81,15.04,0.51,-10.59,3.21,17.47,80.0-90.0
80.0,1535.0,-3.9,-3.99,7.61,-2.92,-0.21,-2.51,17.46,80.0-90.0
80.0,1141.0,0.67,1.5,13.45,-0.89,6.42,-0.27,17.47,80.0-90.0
80.0,1311.0,-2.58,2.94,7.59,6.66,-3.05,4.36,17.47,80.0-90.0
80.0,1814.0,-2.01,3.6,9.31,-0.91,4.75,-0.88,17.46,80.0-90.0
80.0,689.0,-0.02,1.21,12.56,6.34,0.55,4.51,17.47,80.0-90.0
80.0,528.0,-3.7,-4.63,10.0,-7.5,-10.27,-2.34,17.47,80.0-90.0
80.0,1951.0,0.07,1.21,13.01,2.12,16.59,-0.66,17.45,80.0-90.0
80.0,339.0,-5.38,-4.32,5.55,-4.98,-2.2,-3.46,17.48,80.0-90.0
80.0,1619.0,1.13,2.93,14.43,0.64,8.8,-1.75,17.47,80.0-90.0
80.0,1001.0,-3.58,2.8,8.6,7.87,-2.0,4.36,17.47,80.0-90.0
80.0,238.0,-0.26,-5.6,11.94,-7.62,-8.91,-2.46,17.46,80.0-90.0
80.0,640.0,2.57,0.19,17.06,4.05,-4.43,4.71,17.48,80.0-90.0
80.0,1920.0,-6.17,-4.59,6.08,-7.53,-6.38,-2.01,17.46,80.0-90.0
80.0,720.0,1.91,1.36,16.48,0.36,11.26,-0.4,17.48,80.0-90.0
80.0,2158.0,-5.21,4.11,6.41,8.04,-5.55,5.15,17.47,80.0-90.0
80.0,1905.0,-0.3,4.61,6.87,0.28,3.33,-1.96,17.47,80.0-90.0
80.0,0.0,0.01,0.76,15.7,5.61,0.38,3.65,17.45,80.0-90.0
80.0,2053.0,-4.41,-4.55,6.91,-7.99,-10.15,-3.26,17.44,80.0-90.0
80.0,1392.0,1.14,1.44,14.58,0.39,13.4,-1.67,17.46,80.0-90.0
80.0,2096.0,0.09,-4.11,6.5,-2.07,1.02,-2.98,17.47,80.0-90.0
80.0,1674.0,-0.66,3.89,5.7,0.06,7.95,-2.46,17.47,80.0-90.0
80.0,208.0,1.02,1.34,15.7,4.18,-2.87,4.16,17.47,80.0-90.0
80.0,1648.0,-2.93,-4.4,5.55,-6.96,-7.8,-1.84,17.47,80.0-90.0
80.0,1497.0,6.25,0.95,12.17,-2.63,-11.83,3.17,17.48,80.0-90.0
80.0,1908.0,1.2,-3.65,9.63,-0.51,0.67,-2.04,17.48,80.0-90.0
80.0,1870.0,-2.43,3.27,2.78,1.63,10.41,-3.35,17.47,80.0-90.0
80.0,0.0,5.63,1.27,14.84,1.44,-5.95,2.78,17.45,80.0-90.0
80.0,1651.0,-0.7,-1.13,5.67,3.18,15.23,-3.06,17.47,80.0-90.0
80.0,1460.0,0.25,0.84,8.79,-3.36,-6.33,1.34,17.47,80.0-90.0
80.0,1972.0,4.47,-0.32,12.58,2.73,-6.74,0.6,17.47,80.0-90.0
80.0,1185.0,-2.42,0.07,3.78,2.37,13.85,-2.85,17.46,80.0-90.0
80.0,128.0,-1.1,3.97,9.27,5.66,-12.31,4.42,17.48,80.0-90.0
80.0,1281.0,0.3,-3.83,11.44,-2.58,1.49,-1.21,17.46,80.0-90.0
80.0,1075.0,-3.15,-1.34,11.35,-2.83,7.66,-0.82,17.49,80.0-90.0
80.0,1861.0,0.82,4.04,8.78,5.47,-13.61,3.36,17.47,80.0-90.0
80.0,572.0,2.64,0.9,10.77,-1.71,10.62,-3.79,17.48,80.0-90.0
80.0,0.0,-4.1,2.8,13.43,6.28,-1.16,3.3,17.46,80.0-90.0
80.0,2928.0,-1.02,-4.19,7.17,-6.12,-11.52,-0.71,17.49,80.0-90.0
80.0,1394.0,1.55,0.36,11.79,-1.78,13.32,-2.92,17.47,80.0-90.0
80.0,2223.0,-0.37,-2.52,11.11,-0.16,-2.17,0.18,17.47,80.0-90.0
80.0,0.0,-2.48,2.15,1.84,2.5,11.35,-2.46,17.48,80.0-90.0
80.0,1885.0,6.51,0.9,13.71,-1.29,-6.56,3.04,17.48,80.0-90.0
80.0,1891.0,-1.82,-2.46,10.11,-0.31,-2.14,-0.88,17.49,80.0-90.0
80.0,1310.0,-3.37,-0.6,9.3,-4.11,0.14,-0.6,17.47,80.0-90.0
80.0,1382.0,3.89,2.61,10.34,4.92,-10.47,1.96,17.47,80.0-90.0
80.0,0.0,-0.16,-2.8,8.94,0.62,9.48,-3.14,17.48,80.0-90.0
80.0,1906.0,-2.73,0.0,8.85,-3.29,0.98,-0.47,17.47,80.0-90.0
80.0,992.0,0.33,-3.91,8.92,-5.59,-8.73,-0.92,17.46,80.0-90.0
80.0,2544.0,-0.22,0.26,11.87,-1.24,13.73,-2.14,17.47,80.0-90.0
80.0,0.0,-3.87,2.71,12.43,5.26,-7.57,5.18,17.47,80.0-90.0
80.0,565.0,-0.45,-4.17,8.75,-5.61,-7.07,-0.4,17.47,80.0-90.0
80.0,2286.0,4.73,0.81,13.97,-1.33,-7.03,2.92,17.46,80.0-90.0
80.0,1584.0,-1.37,-1.82,9.04,0.33,-1.1,-0.76,17.46,80.0-90.0
80.0,1521.0,-1.45,2.22,3.55,1.63,10.33,-3.35,17.48,80.0-90.0
80.0,3.0,4.33,0.92,14.56,-0.08,-6.7,2.2,17.47,80.0-90.0
80.0,2172.0,-0.28,-2.62,7.33,0.7,10.99,-3.04,17.48,80.0-90.0
80.0,1264.0,-0.85,0.59,8.85,-3.51,-2.73,0.31,17.46,80.0-90.0
80.0,2787.0,3.86,1.55,12.0,4.25,-8.24,1.76,17.5,80.0-90.0
80.0,592.0,-1.62,-1.52,5.63,1.44,12.5,-2.53,17.49,80.0-90.0
80.0,854.0,-2.7,4.26,9.39,6.24,-10.24,4.84,17.47,80.0-90.0
80.0,2453.0,1.15,-4.62,11.71,-4.49,-3.69,-0.98,17.47,80.0-90.0
80.0,2397.0,-3.16,-0.98,11.7,-2.22,11.63,-1.78,17.47,80.0-90.0
80.0,1842.0,-0.88,3.89,9.67,5.67,-12.73,3.84,17.47,80.0-90.0
80.0,1159.0,1.52,0.98,8.01,-0.94,10.51,-4.05,17.48,80.0-90.0
80.0,983.0,-0.96,2.26,13.82,3.79,-3.01,2.68,17.48,80.0-90.0
80.0,2385.0,-1.35,-2.55,7.02,-3.45,-8.03,-0.98,17.47,80.0-90.0
80.0,1665.0,1.74,0.89,8.37,-0.69,12.13,-3.23,17.48,80.0-90.0
80.0,1600.0,1.31,0.05,11.26,2.95,-3.97,0.97,17.48,80.0-90.0
80.0,597.0,-2.38,-0.85,4.49,0.57,10.71,-2.49,17.46,80.0-90.0
80.0,1569.0,3.98,1.15,10.41,-2.87,-5.42,2.16,17.45,80.0-90.0
80.0,2164.0,1.77,0.24,11.66,3.52,-4.58,0.63,17.46,80.0-90.0
80.0,1258.0,-3.53,0.25,11.63,-0.65,9.81,-0.92,17.47,80.0-90.0
80.0,1580.0,0.06,3.59,7.95,6.77,-11.76,3.9,17.47,80.0-90.0
80.0,0.0,2.63,-4.71,10.88,-3.99,1.82,-2.43,17.45,80.0-90.0
80.0,2370.0,-3.61,0.26,10.97,-0.57,9.35,-1.14,17.48,80.0-90.0
80.0,2119.0,-3.22,-3.73,6.59,-5.18,-5.8,-1.44,17.47,80.0-90.0
80.0,1242.0,1.8,2.39,10.54,0.28,10.36,-1.96,17.47,80.0-90.0
80.0,489.0,-2.67,1.63,14.22,4.47,-4.14,4.25,17.47,80.0-90.0
80.0,816.0,-2.92,-4.14,7.38,-6.57,-8.53,-1.37,17.48,80.0-90.0
80.0,2288.0,5.87,0.34,13.82,-3.27,-10.3,2.22,17.46,80.0-90.0
80.0,2233.0,-0.59,-1.8,9.2,1.08,0.08,-1.14,17.47,80.0-90.0
80.0,1872.0,-2.12,1.98,3.77,0.71,9.67,-2.83,17.48,80.0-90.0
80.0,0.0,4.3,0.47,15.23,-0.43,-7.52,2.66,17.49,80.0-90.0
80.0,1437.0,-0.33,-2.37,6.72,0.93,12.91,-3.14,17.47,80.0-90.0
80.0,2021.0,0.41,0.82,8.96,-3.21,-4.73,0.95,17.44,80.0-90.0
80.0,2402.0,3.3,0.74,11.4,3.93,-6.36,1.08,17.45,80.0-90.0
80.0,1995.0,-1.31,-0.83,5.16,1.23,12.79,-3.07,17.48,80.0-90.0
80.0,0.0,-1.39,3.47,8.93,5.53,-10.39,4.34,17.48,80.0-90.0
80.0,2191.0,1.27,-4.53,11.67,-4.28,-0.41,-1.67,17.45,80.0-90.0
80.0,2064.0,-3.92,0.12,11.27,-1.03,9.52,-0.56,17.47,80.0-90.0
80.0,2525.0,0.52,3.23,8.41,6.24,-11.28,3.67,17.47,80.0-90.0
80.0,1661.0,1.12,2.16,9.92,0.15,9.77,-2.2,17.47,80.0-90.0
80.0,0.0,-2.31,1.66,14.22,4.89,-3.97,3.67,17.45,80.0-90.0
80.0,2351.0,-3.03,-4.07,8.18,-5.64,-7.55,-1.44,17.47,80.0-90.0
80.0,2352.0,0.43,1.21,12.74,-0.02,12.34,-2.17,17.45,80.0-90.0
80.0,1910.0,-0.16,-2.1,8.8,-0.01,-0.6,-1.43,17.47,80.0-90.0
80.0,1198.0,-1.49,2.84,3.74,1.58,10.28,-2.98,17.47,80.0-90.0
80.0,197.0,3.67,0.59,15.22,-0.2,-7.17,3.17,17.46,80.0-90.0
80.0,2928.0,-2.11,-3.15,7.31,-2.77,-1.21,-1.32,17.47,80.0-90.0
80.0,1559.0,0.26,0.44,8.34,-4.05,-5.74,1.53,17.45,80.0-90.0
80.0,2467.0,4.37,0.67,12.58,3.7,-6.35,0.8,17.46,80.0-90.0
80.0,1392.0,-2.78,-0.15,4.13,3.17,14.04,-2.74,17.45,80.0-90.0
80.0,79.0,3.63,0.36,10.3,-4.32,-9.49,1.29,17.44,80.0-90.0
80.0,2927.0,1.95,-4.72,11.92,-3.18,1.14,-2.07,17.46,80.0-90.0
80.0,1613.0,-4.03,-0.63,10.71,-1.97,8.86,-1.12,17.46,80.0-90.0
80.0,2330.0,1.42,4.32,8.73,6.71,-12.88,3.91,17.47,80.0-90.0
80.0,913.0,1.67,-4.08,11.18,-1.93,4.01,-1.35,17.45,80.0-90.0
80.0,929.0,-3.25,2.49,13.93,5.7,-3.89,4.55,17.47,80.0-90.0
80.0,2926.0,-2.36,-4.33,6.98,-6.92,-8.82,-0.83,17.48,80.0-90.0
80.0,1037.0,2.11,1.05,12.47,-0.75,12.47,-2.85,17.43,80.0-90.0
80.0,2066.0,-4.74,3.48,12.29,7.0,-5.07,4.26,17.46,80.0-90.0
80.0,0.0,-2.49,2.48,2.64,2.28,11.06,-3.55,17.46,80.0-90.0
80.0,2453.0,5.62,0.78,14.25,-0.78,-7.92,2.25,17.47,80.0-90.0
80.0,1947.0,-1.5,-3.05,8.69,-1.15,-1.08,-1.24,17.48,80.0-90.0
80.0,2102.0,-1.2,2.53,3.13,1.29,8.83,-2.88,17.48,80.0-90.0
80.0,1869.0,4.71,2.02,11.9,4.72,-9.87,2.6,17.47,80.0-90.0
80.0,866.0,-1.35,-2.0,6.74,2.16,13.27,-1.9,17.47,80.0-90.0
80.0,1959.0,-0.41,-0.0,8.84,-4.57,-4.18,0.91,17.47,80.0-90.0
80.0,2928.0,3.78,1.6,11.97,4.22,-7.2,1.43,17.46,80.0-90.0
80.0,1808.0,-2.17,-0.72,13.25,-2.31,13.0,-2.83,17.45,80.0-90.0
80.0,637.0,-3.35,4.82,9.16,7.41,-9.31,4.01,17.46,80.0-90.0
80.0,2304.0,1.89,-4.83,11.36,-5.85,-5.62,-1.52,17.44,80.0-90.0
80.0,1805.0,-3.27,-1.11,13.35,-2.34,13.75,-2.66,17.44,80.0-90.0
80.0,2755.0,-2.53,-3.36,6.53,-3.42,-4.97,-0.88,17.47,80.0-90.0
80.0,1788.0,1.64,2.48,5.1,0.31,9.48,-2.72,17.47,80.0-90.0
80.0,884.0,1.85,1.02,16.36,2.83,-3.74,3.97,17.47,80.0-90.0
80.0,2928.0,-3.21,-3.54,5.56,-4.13,-5.54,-1.01,17.45,80.0-90.0
80.0,2139.0,2.7,0.47,9.24,-5.21,-8.91,1.3,17.47,80.0-90.0
80.0,2433.0,3.64,0.67,12.84,4.47,-3.36,0.13,17.45,80.0-90.0
80.0,1743.0,-3.95,-0.0,4.25,3.18,14.8,-3.09,17.45,80.0-90.0
80.0,0.0,3.5,0.48,9.96,-4.66,-10.74,1.37,17.47,80.0-90.0
80.0,2928.0,2.3,-4.82,12.51,-4.32,0.43,-1.75,17.49,80.0-90.0
80.0,1712.0,-3.87,-1.29,11.22,-2.81,8.97,-1.24,17.47,80.0-90.0
80.0,2733.0,0.69,5.07,7.45,6.57,-12.51,4.22,17.47,80.0-90.0
80.0,1467.0,2.15,-3.73,12.39,-0.92,5.23,-1.34,17.45,80.0-90.0
80.0,711.0,-4.12,3.01,13.33,6.88,-1.24,4.31,17.48,80.0-90.0
80.0,2928.0,-1.91,-4.09,6.65,-6.61,-9.95,-1.29,17.45,80.0-90.0
80.0,1526.0,2.14,0.16,12.83,-1.35,12.25,-3.38,17.45,80.0-90.0
80.0,2510.0,-4.95,3.85,11.45,6.78,-5.45,3.96,17.44,80.0-90.0
80.0,536.0,-1.21,2.19,3.12,1.6,8.93,-3.53,17.45,80.0-90.0
80.0,2139.0,4.82,1.08,14.5,0.03,-5.3,2.53,17.45,80.0-90.0
80.0,2410.0,-1.8,-3.12,7.98,-1.91,-2.06,-0.98,17.48,80.0-90.0
80.0,1969.0,-0.53,2.69,3.61,0.65,9.15,-2.89,17.45,80.0-90.0
80.0,2129.0,4.41,1.08,12.75,3.66,-9.22,2.04,17.45,80.0-90.0
80.0,0.0,-2.02,-0.67,5.14,3.11,13.47,-2.33,17.45,80.0-90.0
80.0,2514.0,1.66,0.27,9.47,-4.25,-6.5,0.89,17.44,80.0-90.0
80.0,2419.0,3.3,-0.35,13.25,2.3,-4.52,-0.5,17.47,80.0-90.0
80.0,1722.0,-3.8,-1.27,12.28,-2.32,12.56,-2.51,17.47,80.0-90.0
80.0,1647.0,-0.71,4.68,8.37,6.71,-13.37,3.7,17.46,80.0-90.0
80.0,162.0,1.8,-4.14,11.61,-2.34,2.49,-1.67,17.47,80.0-90.0
80.0,2928.0,-3.89,-1.24,11.47,-3.27,7.34,-0.4,17.47,80.0-90.0
80.0,2608.0,-1.9,-3.87,6.76,-5.3,-7.68,-0.4,17.47,80.0-90.0
80.0,2278.0,1.35,0.81,11.41,-1.64,10.42,-1.99,17.47,80.0-90.0
80.0,733.0,-3.67,2.66,12.83,5.82,-3.94,4.49,17.46,80.0-90.0
80.0,1172.0,-1.83,-3.79,8.59,-5.48,-8.61,-0.8,17.45,80.0-90.0
80.0,2815.0,5.76,1.4,13.04,-0.07,-6.42,2.07,17.48,80.0-90.0
80.0,2621.0,-0.23,-2.38,8.62,-0.45,-1.8,-1.37,17.46,80.0-90.0
80.0,2077.0,-1.29,2.28,3.9,0.42,8.8,-3.79,17.46,80.0-90.0
80.0,475.0,3.79,1.33,14.68,1.44,-4.0,2.27,17.45,80.0-90.0
80.0,771.0,-1.16,-1.29,4.96,2.53,13.2,-2.98,17.46,80.0-90.0
80.0,2698.0,1.1,0.34,9.74,-4.49,-6.88,1.41,17.45,80.0-90.0
80.0,1505.0,3.23,-0.44,13.36,2.56,-4.33,1.06,17.47,80.0-90.0
80.0,1969.0,-3.35,0.13,3.34,3.08,13.4,-2.24,17.45,80.0-90.0
80.0,789.0,-0.75,4.51,8.47,6.13,-12.42,4.91,17.47,80.0-90.0
80.0,656.0,1.46,-4.13,12.54,-1.41,1.62,-0.92,17.49,80.0-90.0
80.0,2432.0,-4.36,-1.18,10.01,-2.89,7.48,-1.06,17.46,80.0-90.0
80.0,2438.0,1.74,3.77,9.92,5.14,-13.08,3.04,17.47,80.0-90.0
80.0,1599.0,1.83,0.45,11.25,-1.5,13.14,-4.13,17.46,80.0-90.0
80.0,949.0,-4.42,3.93,12.05,6.25,-3.01,3.35,17.45,80.0-90.0
80.0,1955.0,0.21,-3.47,8.42,-5.41,-11.63,-0.56,17.45,80.0-90.0
80.0,2529.0,0.57,-0.6,11.6,-2.9,13.61,-2.95,17.47,80.0-90.0
80.0,2310.0,-0.9,-2.41,9.28,-0.95,-4.14,-0.01,17.45,80.0-90.0
80.0,1663.0,-0.84,1.1,3.98,0.13,9.11,-3.15,17.45,80.0-90.0
80.0,403.0,4.64,1.98,12.94,1.72,-2.5,2.74,17.47,80.0-90.0
80.0,2928.0,-1.29,-2.27,8.86,-0.62,-6.12,0.11,17.46,80.0-90.0
80.0,1072.0,-1.07,-0.1,9.66,-3.06,0.47,0.07,17.47,80.0-90.0
80.0,2601.0,3.19,1.97,11.95,4.85,-9.66,2.37,17.48,80.0-90.0
80.0,604.0,-1.39,-2.32,7.63,1.12,8.9,-2.49,17.45,80.0-90.0
80.0,1470.0,-1.46,0.35,9.61,-3.07,0.3,0.07,17.44,80.0-90.0
80.0,2928.0,0.58,-3.92,9.46,-4.84,-6.64,-0.8,17.45,80.0-90.0
80.0,2157.0,-1.1,0.01,11.61,-2.02,13.09,-2.42,17.46,80.0-90.0
80.0,1739.0,-3.35,3.57,11.4,5.47,-7.61,4.33,17.45,80.0-90.0
80.0,1280.0,0.45,-4.42,9.69,-5.27,-6.41,-0.95,17.47,80.0-90.0
80.0,2019.0,3.54,1.38,13.19,0.53,-4.0,2.49,17.47,80.0-90.0
80.0,2928.0,-1.01,-2.32,8.93,-0.89,-5.26,-0.5,17.46,80.0-90.0
80.0,2102.0,-0.66,1.3,4.69,0.73,10.71,-3.81,17.46,80.0-90.0
80.0,193.0,3.19,1.75,13.4,1.51,-3.78,2.56,17.46,80.0-90.0
80.0,2819.0,-0.71,-2.02,6.69,1.4,10.22,-2.62,17.45,80.0-90.0
80.0,1935.0,-0.53,0.48,9.4,-2.78,-0.47,0.91,17.47,80.0-90.0
80.0,2062.0,3.32,1.74,11.64,3.76,-10.32,2.69,17.47,80.0-90.0
80.0,1955.0,-1.1,-1.54,6.36,1.69,11.54,-2.33,17.48,80.0-90.0
80.0,35.0,-3.04,4.22,10.61,6.34,-8.5,4.36,17.47,80.0-90.0
80.0,2288.0,0.04,-3.83,9.91,-3.91,-4.82,-1.09,17.46,80.0-90.0
80.0,2579.0,-1.59,-1.28,12.78,-2.94,11.66,-2.83,17.47,80.0-90.0
80.0,2928.0,-2.85,4.34,10.04,6.05,-9.78,3.43,17.46,80.0-90.0
80.0,864.0,0.9,0.72,6.52,-1.49,9.69,-4.6,17.45,80.0-90.0
80.0,0.0,1.12,2.94,13.35,4.51,-0.93,2.51,17.48,80.0-90.0
80.0,2928.0,-0.96,-2.66,7.03,-2.36,-7.95,0.39,17.44,80.0-90.0
80.0,2414.0,1.43,0.36,6.78,-2.08,10.19,-3.61,17.44,80.0-90.0
80.0,2365.0,2.69,-0.28,13.49,1.93,-7.89,2.37,17.47,80.0-90.0
80.0,0.0,-3.26,-0.36,4.23,2.83,11.32,-2.42,17.46,80.0-90.0
80.0,2529.0,2.25,0.93,9.81,-2.45,-3.04,1.34,17.45,80.0-90.0
80.0,2928.0,2.71,-0.25,13.47,1.8,-8.33,1.46,17.46,80.0-90.0
80.0,2196.0,-3.48,-1.82,12.45,-4.05,11.34,-2.83,17.48,80.0-90.0
80.0,921.0,-1.69,4.85,9.37,6.34,-11.08,3.62,17.47,80.0-90.0
80.0,713.0,1.68,-3.92,11.43,-2.58,-1.56,-1.03,17.47,80.0-90.0
80.0,2816.0,-4.08,-2.09,12.24,-4.61,11.7,-2.42,17.47,80.0-90.0
80.0,2928.0,-1.73,-3.5,6.82,-4.2,-9.48,0.36,17.47,80.0-90.0
80.0,1835.0,2.11,0.96,6.22,-1.64,11.44,-3.9,17.47,80.0-90.0
80.0,0.0,0.98,3.23,13.77,5.46,-1.31,3.62,17.47,80.0-90.0
80.0,1983.0,-1.42,-3.54,6.85,-3.94,-9.31,0.25,17.45,80.0-90.0
80.0,2928.0,2.34,0.65,9.9,-3.04,-4.41,1.23,17.46,80.0-90.0
80.0,2689.0,2.64,-0.71,14.11,1.54,-6.79,0.63,17.47,80.0-90.0
80.0,450.0,-3.64,0.13,3.56,4.02,12.31,-3.53,17.46,80.0-90.0
80.0,677.0,2.85,0.71,10.01,-3.15,-5.1,0.82,17.45,80.0-90.0
80.0,2927.0,1.65,-3.6,11.96,-2.07,-1.5,-0.82,17.45,80.0-90.0
80.0,1425.0,-4.57,-2.13,11.97,-4.58,11.25,-1.99,17.46,80.0-90.0
80.0,2928.0,-0.76,5.08,8.73,6.31,-11.9,4.8,17.46,80.0-90.0
80.0,0.0,1.54,-3.9,12.22,-2.32,-0.84,-0.13,17.46,80.0-90.0
80.0,1886.0,-0.26,3.12,13.9,6.17,-0.15,3.9,17.44,80.0-90.0
80.0,2928.0,-1.02,-3.66,5.84,-4.81,-10.85,-0.18,17.44,80.0-90.0
80.0,1222.0,2.83,1.02,8.32,-1.73,11.09,-4.66,17.45,80.0-90.0
80.0,1806.0,-1.44,3.42,13.52,7.26,1.48,2.92,17.44,80.0-90.0
80.0,304.0,-4.21,1.33,1.37,4.16,13.18,-3.68,17.45,80.0-90.0
80.0,2807.0,5.07,0.96,11.76,-2.83,-8.0,1.63,17.46,80.0-90.0
80.0,2534.0,1.13,-2.46,13.71,0.15,-4.33,0.16,17.48,80.0-90.0
80.0,1678.0,-4.75,-2.45,10.39,-5.76,6.61,-1.29,17.47,80.0-90.0
80.0,1305.0,1.74,4.09,9.54,4.39,-14.15,3.82,17.44,80.0-90.0
80.0,931.0,0.12,-2.68,11.4,1.51,7.98,-1.15,17.45,80.0-90.0
80.0,2928.0,-4.36,-1.64,9.63,-4.77,3.07,-0.6,17.46,80.0-90.0
80.0,2080.0,0.65,-3.29,7.19,-4.55,-11.52,-0.13,17.46,80.0-90.0
80.0,1648.0,1.42,-1.31,10.75,-3.27,14.43,-4.36,17.44,80.0-90.0
80.0,1058.0,-3.84,4.03,11.62,5.99,-3.37,3.29,17.46,80.0-90.0
80.0,2512.0,0.6,-2.68,7.83,-3.07,-8.91,-0.1,17.48,80.0-90.0
80.0,2176.0,4.57,2.3,11.9,1.15,-2.43,2.08,17.45,80.0-90.0
80.0,2483.0,-0.03,-1.39,10.29,0.64,-6.26,1.37,17.47,80.0-90.0
80.0,739.0,-0.99,-0.33,4.08,-0.37,9.35,-3.47,17.47,80.0-90.0
80.0,838.0,4.0,1.94,11.65,0.07,-0.85,1.7,17.46,80.0-90.0
80.0,2928.0,-1.6,-3.15,9.96,-1.04,5.1,-1.59,17.47,80.0-90.0
