Speed,Voice,Acceleration X,Acceleration Y,Acceleration Z,Gyro X,Gyro Y,Gyro Z,Temperature,Speed_Range
80.0,1714.0,0.41,-4.25,9.87,-7.7,0.33,-2.76,27.79,80.0-90.0
80.0,2629.0,-1.75,2.63,10.98,4.15,-4.28,1.27,27.81,80.0-90.0
80.0,813.0,-0.45,-3.89,10.28,-8.0,0.16,-2.99,27.79,80.0-90.0
80.0,2238.0,2.09,1.93,9.8,0.3,-5.93,3.89,27.8,80.0-90.0
80.0,1424.0,-0.95,-0.77,11.54,1.58,-2.57,-0.27,27.79,80.0-90.0
80.0,1379.0,0.11,1.87,9.43,-1.56,-3.06,3.31,27.79,80.0-90.0
80.0,1740.0,-1.83,2.96,11.21,5.14,-4.46,2.44,27.79,80.0-90.0
80.0,1808.0,-1.34,-4.97,9.62,-9.57,2.07,-5.48,27.8,80.0-90.0
80.0,1691.0,0.84,2.87,9.68,0.73,-3.79,2.72,27.81,80.0-90.0
80.0,947.0,-2.45,-4.35,8.99,-5.41,3.91,-6.15,27.81,80.0-90.0
80.0,2236.0,1.02,-0.83,8.42,-4.28,6.19,-1.88,27.8,80.0-90.0
80.0,1618.0,0.38,6.89,10.3,14.11,-3.56,7.63,27.77,80.0-90.0
80.0,1580.0,-2.23,-5.04,8.92,-5.86,1.21,-5.72,27.8,80.0-90.0
80.0,1463.0,1.31,5.67,11.14,8.68,-4.43,8.3,27.81,80.0-90.0
80.0,1905.0,-1.66,0.79,11.79,4.1,-9.27,1.79,27.79,80.0-90.0
80.0,2493.0,-1.77,-6.87,7.89,-15.2,8.19,-8.42,27.8,80.0-90.0
80.0,821.0,0.27,5.05,10.1,6.13,3.5,6.04,27.79,80.0-90.0
80.0,1245.0,-1.7,-6.18,7.75,-9.07,1.53,-8.26,27.8,80.0-90.0
80.0,2502.0,0.02,-3.14,9.32,-8.4,9.61,-4.43,27.79,80.0-90.0
80.0,62.0,0.97,7.23,11.95,14.83,-8.67,9.61,27.81,80.0-90.0
80.0,1040.0,-2.41,-1.4,10.65,-1.67,-9.97,-2.87,27.81,80.0-90.0
80.0,2199.0,1.39,2.79,9.42,4.6,9.21,3.28,27.81,80.0-90.0
80.0,0.0,2.73,5.68,12.51,12.55,-15.62,9.31,27.81,80.0-90.0
80.0,835.0,-1.67,-6.1,8.33,-10.21,-1.34,-7.02,27.78,80.0-90.0
80.0,2291.0,-1.66,-3.98,9.31,-9.33,10.89,-4.39,27.81,80.0-90.0
80.0,429.0,0.18,3.62,11.75,6.48,-14.81,5.11,27.81,80.0-90.0
80.0,1722.0,-1.66,-7.1,6.5,-12.24,10.26,-9.58,27.81,80.0-90.0
80.0,2722.0,1.73,-1.14,9.0,-1.7,12.03,-1.56,27.8,80.0-90.0
80.0,748.0,1.88,7.11,13.52,12.92,-16.2,9.84,27.79,80.0-90.0
80.0,1296.0,-2.41,-6.86,5.41,-12.56,16.67,-10.68,27.79,80.0-90.0
80.0,1424.0,1.67,2.62,9.1,5.47,12.64,1.83,27.78,80.0-90.0
80.0,301.0,3.16,5.98,13.98,11.9,-19.77,9.93,27.8,80.0-90.0
80.0,1188.0,-2.01,-4.81,8.93,-8.61,-5.96,-4.99,27.79,80.0-90.0
80.0,2123.0,0.14,5.36,9.77,10.28,8.22,6.35,27.79,80.0-90.0
80.0,816.0,2.49,4.98,12.76,9.97,-18.18,8.87,27.79,80.0-90.0
80.0,1211.0,-1.5,-6.43,7.32,-11.31,3.23,-7.9,27.8,80.0-90.0
80.0,2416.0,-1.3,-3.65,9.32,-8.55,12.41,-5.83,27.79,80.0-90.0
80.0,0.0,0.29,3.41,11.83,5.7,-16.55,5.11,27.78,80.0-90.0
80.0,1472.0,-1.56,-6.93,6.19,-12.24,11.33,-10.76,27.79,80.0-90.0
80.0,1787.0,0.8,-2.11,9.48,-3.68,12.52,-3.72,27.79,80.0-90.0
80.0,0.0,0.99,7.33,13.02,14.16,-14.49,10.99,27.79,80.0-90.0
80.0,0.0,-2.09,-7.24,5.47,-14.0,16.14,-11.64,27.79,80.0-90.0
80.0,1535.0,2.11,-0.05,9.19,1.49,13.8,0.09,27.8,80.0-90.0
80.0,0.0,2.3,6.89,14.59,13.33,-20.9,12.24,27.79,80.0-90.0
80.0,1392.0,-3.25,-1.4,9.83,-5.13,-11.97,-1.36,27.79,80.0-90.0
80.0,1469.0,2.02,2.02,9.39,6.4,13.82,2.47,27.82,80.0-90.0
80.0,0.0,3.33,6.32,14.8,13.09,-22.67,11.46,27.81,80.0-90.0
80.0,1621.0,-2.77,-3.3,9.42,-8.08,-9.64,-4.44,27.81,80.0-90.0
80.0,2467.0,-3.57,-5.62,5.99,-12.3,18.71,-10.36,27.82,80.0-90.0
80.0,0.0,3.6,5.84,14.11,12.16,-21.49,10.21,27.83,80.0-90.0
80.0,1535.0,-2.12,-5.09,8.55,-10.29,-5.27,-6.38,27.78,80.0-90.0
80.0,1535.0,-3.29,-5.02,7.4,-11.97,16.55,-8.74,27.79,80.0-90.0
80.0,0.0,0.05,5.7,9.87,12.4,6.13,7.32,27.8,80.0-90.0
80.0,1781.0,-1.64,-6.04,7.7,-11.71,0.51,-7.68,27.79,80.0-90.0
80.0,2493.0,-2.44,-4.19,8.44,-10.4,14.7,-6.96,27.82,80.0-90.0
80.0,275.0,-0.24,6.78,10.47,13.73,-0.18,8.99,27.81,80.0-90.0
80.0,1262.0,1.43,3.82,12.33,6.95,-18.17,6.59,27.82,80.0-90.0
80.0,1251.0,-1.08,-3.53,9.27,-8.11,13.45,-6.04,27.82,80.0-90.0
80.0,945.0,-0.19,7.44,11.38,14.49,-6.2,9.77,27.79,80.0-90.0
80.0,1657.0,-0.19,2.83,11.57,4.33,-16.75,4.7,27.8,80.0-90.0
80.0,679.0,-1.68,-6.99,5.8,-12.56,13.94,-11.03,27.79,80.0-90.0
80.0,1386.0,0.37,7.73,12.28,14.26,-11.96,11.66,27.82,80.0-90.0
80.0,1364.0,-1.6,1.58,11.43,1.03,-16.96,3.25,27.81,80.0-90.0
80.0,546.0,-2.08,-7.22,5.01,-12.41,17.59,-11.64,27.78,80.0-90.0
80.0,2487.0,1.86,-1.19,9.68,-1.29,13.54,-1.48,27.8,80.0-90.0
80.0,802.0,-2.52,0.48,11.03,-1.59,-16.21,1.33,27.8,80.0-90.0
80.0,1232.0,-2.57,-7.05,4.61,-12.24,20.21,-12.12,27.78,80.0-90.0
80.0,2057.0,2.29,-0.07,9.56,2.05,14.59,-0.38,27.78,80.0-90.0
80.0,1188.0,2.36,7.19,14.49,13.19,-21.05,12.18,27.8,80.0-90.0
80.0,1277.0,-2.96,-6.87,4.4,-12.27,21.37,-12.15,27.8,80.0-90.0
80.0,2928.0,2.17,1.12,9.54,4.95,14.9,1.19,27.79,80.0-90.0
80.0,0.0,3.27,6.72,14.9,12.35,-22.91,12.53,27.78,80.0-90.0
80.0,1458.0,-3.05,-2.31,9.8,-6.84,-12.92,-2.82,27.77,80.0-90.0
80.0,2535.0,1.82,2.33,9.43,7.29,14.9,3.17,27.8,80.0-90.0
80.0,576.0,3.78,6.29,15.0,11.74,-23.32,12.08,27.82,80.0-90.0
80.0,1514.0,-2.76,-3.54,9.2,-8.66,-10.34,-4.7,27.82,80.0-90.0
80.0,1903.0,-3.73,-5.64,5.61,-12.14,19.55,-10.45,27.82,80.0-90.0
80.0,0.0,4.1,5.72,14.78,11.0,-23.09,10.76,27.8,80.0-90.0
80.0,1008.0,-2.29,-4.53,8.77,-9.86,-7.58,-6.39,27.79,80.0-90.0
80.0,2507.0,-3.53,-5.11,6.44,-11.68,17.97,-9.67,27.79,80.0-90.0
80.0,496.0,0.27,5.09,9.67,12.03,10.11,6.44,27.81,80.0-90.0
80.0,2261.0,-1.81,-5.4,8.19,-10.92,-4.08,-7.52,27.8,80.0-90.0
80.0,2849.0,-3.15,-4.53,7.5,-10.88,16.26,-8.09,27.79,80.0-90.0
80.0,1657.0,-0.26,5.99,9.98,12.93,6.32,8.07,27.78,80.0-90.0
80.0,1869.0,2.96,4.4,13.43,8.02,-20.93,8.61,27.79,80.0-90.0
80.0,1033.0,-2.33,-4.06,8.22,-9.85,15.31,-7.25,27.79,80.0-90.0
80.0,1975.0,-0.46,6.77,10.41,13.79,1.69,8.99,27.81,80.0-90.0
80.0,2506.0,1.7,3.73,12.86,6.5,-19.78,6.77,27.79,80.0-90.0
80.0,832.0,-1.33,-6.76,6.69,-11.92,7.07,-10.6,27.79,80.0-90.0
80.0,2657.0,-0.39,7.32,11.01,14.16,-3.18,10.09,27.79,80.0-90.0
80.0,1350.0,0.41,2.96,12.2,4.69,-18.09,5.71,27.79,80.0-90.0
80.0,901.0,-1.64,-7.01,6.15,-12.11,11.15,-10.96,27.8,80.0-90.0
80.0,2218.0,0.19,-2.66,9.51,-5.5,13.56,-3.98,27.8,80.0-90.0
80.0,1219.0,-0.85,2.28,11.7,2.76,-17.34,4.47,27.79,80.0-90.0
80.0,1905.0,-1.85,-7.07,5.58,-12.07,14.88,-11.52,27.81,80.0-90.0
80.0,2928.0,1.07,-2.02,9.55,-3.33,13.8,-3.1,27.78,80.0-90.0
80.0,387.0,0.79,7.76,13.12,13.76,-15.08,11.81,27.8,80.0-90.0
80.0,538.0,-2.28,-7.12,5.04,-12.17,18.06,-12.27,27.78,80.0-90.0
80.0,2403.0,1.91,-1.29,9.71,-1.0,14.23,-2.08,27.8,80.0-90.0
80.0,0.0,1.41,7.6,13.89,13.24,-18.7,12.27,27.77,80.0-90.0
80.0,1971.0,-2.85,0.16,10.6,-2.39,-15.89,0.75,27.81,80.0-90.0
80.0,2927.0,2.25,-0.37,9.62,1.51,14.88,-0.43,27.8,80.0-90.0
80.0,754.0,2.25,7.3,14.52,12.8,-21.34,12.8,27.8,80.0-90.0
80.0,2270.0,-3.19,-0.64,10.16,-4.16,-14.9,-0.52,27.79,80.0-90.0
80.0,2461.0,-3.19,-6.86,4.42,-12.36,21.57,-11.81,27.79,80.0-90.0
80.0,1619.0,2.88,6.96,14.96,12.42,-23.03,12.37,27.8,80.0-90.0
80.0,2883.0,-3.17,-1.66,9.72,-5.86,-13.77,-2.37,27.78,80.0-90.0
80.0,1851.0,-3.54,-6.43,4.52,-12.11,21.48,-11.72,27.81,80.0-90.0
80.0,2495.0,1.96,2.19,9.4,7.3,14.99,2.47,27.81,80.0-90.0
80.0,1994.0,-2.92,-2.55,9.35,-7.45,-12.14,-3.54,27.81,80.0-90.0
80.0,1047.0,-3.67,-6.1,5.04,-12.21,20.85,-10.83,27.8,80.0-90.0
80.0,2615.0,1.3,3.21,9.44,9.06,14.17,4.0,27.79,80.0-90.0
80.0,2592.0,4.06,5.88,15.11,10.86,-24.28,11.63,27.79,80.0-90.0
80.0,1074.0,-3.76,-5.66,5.63,-12.0,19.57,-10.16,27.8,80.0-90.0
80.0,2416.0,0.8,4.18,9.48,10.72,12.78,5.07,27.8,80.0-90.0
80.0,1647.0,4.06,5.4,14.79,10.26,-23.57,10.47,27.8,80.0-90.0
80.0,1443.0,-1.99,-4.96,8.35,-10.49,-6.07,-7.05,27.82,80.0-90.0
80.0,2925.0,0.28,5.11,9.64,12.16,10.34,6.1,27.81,80.0-90.0
80.0,1299.0,3.94,4.97,14.27,9.33,-22.77,9.64,27.79,80.0-90.0
80.0,1919.0,-1.53,-5.59,7.89,-11.17,-2.94,-7.93,27.81,80.0-90.0
80.0,2761.0,-2.84,-4.56,7.5,-10.53,16.36,-8.07,27.81,80.0-90.0
80.0,168.0,3.18,4.6,13.53,8.39,-21.43,9.03,27.79,80.0-90.0
80.0,1775.0,-1.4,-6.1,7.51,-11.65,0.95,-8.67,27.77,80.0-90.0
80.0,2401.0,-2.16,-4.13,8.3,-9.74,14.84,-7.14,27.8,80.0-90.0
80.0,0.0,-0.47,6.69,10.48,13.61,1.73,8.94,27.81,80.0-90.0
80.0,2677.0,-1.29,-6.49,7.04,-11.71,4.54,-9.9,27.8,80.0-90.0
80.0,2927.0,-1.33,-3.72,8.72,-8.44,14.35,-6.44,27.8,80.0-90.0
80.0,896.0,-0.51,7.27,10.95,14.08,-2.19,9.7,27.8,80.0-90.0
80.0,2293.0,0.9,3.23,12.35,5.21,-19.02,6.15,27.8,80.0-90.0
80.0,2361.0,-0.52,-3.27,9.13,-7.02,14.23,-5.31,27.81,80.0-90.0
80.0,2195.0,-0.22,7.53,11.64,13.93,-6.8,10.91,27.79,80.0-90.0
80.0,2557.0,-0.24,2.56,11.91,3.4,-18.33,5.17,27.8,80.0-90.0
80.0,1023.0,-1.8,-6.96,5.65,-11.83,13.85,-11.25,27.79,80.0-90.0
80.0,1478.0,0.16,7.74,12.28,13.88,-10.78,11.43,27.82,80.0-90.0
80.0,1901.0,-1.17,1.91,11.5,1.89,-17.3,3.66,27.79,80.0-90.0
80.0,859.0,-2.11,-7.1,5.26,-11.89,17.02,-11.98,27.8,80.0-90.0
80.0,2143.0,1.41,-1.83,9.74,-2.46,13.98,-2.76,27.79,80.0-90.0
80.0,1238.0,-2.09,1.14,11.07,-0.08,-16.7,2.29,27.8,80.0-90.0
80.0,1153.0,-2.57,-7.14,4.85,-11.98,19.39,-12.15,27.79,80.0-90.0
80.0,2261.0,2.03,-1.01,9.58,-0.16,14.49,-1.48,27.81,80.0-90.0
80.0,1466.0,1.6,7.54,14.05,13.15,-19.19,12.57,27.81,80.0-90.0
80.0,2642.0,-2.86,-6.99,4.54,-11.97,21.14,-11.92,27.81,80.0-90.0
80.0,2925.0,2.3,-0.18,9.57,2.02,15.39,-0.17,27.84,80.0-90.0
80.0,0.0,2.29,7.25,14.77,12.42,-22.0,12.48,27.82,80.0-90.0
80.0,1328.0,-3.14,-0.8,10.02,-4.37,-14.75,-1.04,27.81,80.0-90.0
80.0,2927.0,2.36,0.78,9.55,4.34,15.51,0.73,27.79,80.0-90.0
80.0,0.0,2.93,6.9,15.19,12.13,-23.83,12.25,27.8,80.0-90.0
80.0,2384.0,-3.15,-1.77,9.6,-6.17,-13.7,-2.41,27.79,80.0-90.0
80.0,2030.0,-3.69,-6.42,4.57,-12.12,21.8,-11.46,27.8,80.0-90.0
80.0,0.0,3.57,6.42,15.31,11.58,-24.41,12.13,27.78,80.0-90.0
80.0,1972.0,-2.8,-2.84,9.27,-7.77,-11.93,-3.65,27.8,80.0-90.0
80.0,2397.0,-3.85,-5.95,5.12,-11.97,20.91,-10.71,27.78,80.0-90.0
80.0,997.0,1.32,3.37,9.38,9.53,13.68,4.2,27.78,80.0-90.0
80.0,2926.0,-2.4,-3.78,8.82,-8.95,-9.42,-5.08,27.78,80.0-90.0
80.0,1949.0,-3.81,-5.48,5.8,-11.72,19.48,-10.21,27.8,80.0-90.0
80.0,362.0,0.67,4.38,9.54,11.04,12.28,5.26,27.82,80.0-90.0
80.0,976.0,3.97,5.32,14.66,9.84,-23.66,10.25,27.77,80.0-90.0
80.0,788.0,-3.55,-5.02,6.65,-11.4,17.94,-9.32,27.79,80.0-90.0
80.0,1090.0,0.11,5.31,9.69,12.19,9.42,6.82,27.78,80.0-90.0
80.0,1466.0,3.5,4.79,14.15,8.77,-22.35,9.45,27.79,80.0-90.0
80.0,275.0,-1.45,-5.8,7.68,-11.24,-1.09,-8.04,27.79,80.0-90.0
80.0,1077.0,-0.14,6.1,10.04,13.01,5.55,7.98,27.79,80.0-90.0
80.0,666.0,2.8,4.27,13.4,7.73,-21.22,8.33,27.79,80.0-90.0
80.0,1525.0,-1.21,-6.29,7.12,-11.43,2.81,-9.29,27.78,80.0-90.0
80.0,2250.0,-0.6,6.8,10.58,13.73,1.76,9.03,27.77,80.0-90.0
80.0,235.0,1.79,3.68,12.77,6.31,-19.66,6.93,27.78,80.0-90.0
80.0,1477.0,-1.35,-6.63,6.56,-11.62,7.21,-10.31,27.78,80.0-90.0
80.0,1337.0,-0.88,-3.37,9.21,-7.57,13.63,-5.65,27.8,80.0-90.0
80.0,0.0,0.58,3.06,12.23,4.66,-18.59,5.81,27.78,80.0-90.0
80.0,1197.0,-1.57,-6.87,6.08,-11.82,11.36,-10.94,27.81,80.0-90.0
80.0,2110.0,0.14,-2.83,9.53,-5.71,13.3,-4.36,27.81,80.0-90.0
80.0,0.0,0.18,7.68,12.25,13.76,-10.78,11.4,27.81,80.0-90.0
80.0,2151.0,-1.82,-7.08,5.46,-12.0,15.21,-11.6,27.81,80.0-90.0
80.0,2529.0,1.15,-2.07,9.63,-3.42,14.03,-3.14,27.79,80.0-90.0
80.0,0.0,0.83,7.71,13.07,13.48,-15.18,11.83,27.76,80.0-90.0
80.0,1335.0,-2.42,1.06,11.11,-0.26,-16.69,2.12,27.8,80.0-90.0
80.0,1104.0,1.86,-1.26,9.76,-0.89,14.17,-2.01,27.8,80.0-90.0
80.0,942.0,1.62,7.52,13.93,13.1,-18.88,12.31,27.8,80.0-90.0
80.0,818.0,-2.99,0.19,10.59,-2.43,-15.88,0.64,27.79,80.0-90.0
80.0,1414.0,-2.89,-6.93,4.37,-12.06,21.54,-11.86,27.79,80.0-90.0
80.0,1049.0,2.29,7.26,14.5,12.63,-21.55,12.57,27.8,80.0-90.0
80.0,1393.0,-3.24,-0.88,10.12,-4.51,-14.95,-0.85,27.79,80.0-90.0
80.0,635.0,-3.32,-6.67,4.39,-12.06,22.3,-11.67,27.79,80.0-90.0
80.0,1819.0,2.15,1.43,9.6,5.66,15.19,1.72,27.8,80.0-90.0
80.0,1441.0,-3.15,-2.0,9.74,-6.44,-13.31,-2.73,27.8,80.0-90.0
80.0,0.0,-3.5,-6.3,4.68,-12.12,21.57,-11.23,27.77,80.0-90.0
80.0,986.0,1.54,2.75,9.64,8.19,14.53,3.28,27.79,80.0-90.0
80.0,509.0,4.03,5.99,15.01,11.01,-24.19,11.51,27.8,80.0-90.0
80.0,1303.0,-3.64,-5.66,5.32,-11.89,20.64,-10.36,27.8,80.0-90.0
80.0,2035.0,0.82,3.97,9.83,10.23,12.4,4.97,27.81,80.0-90.0
80.0,289.0,4.1,5.46,14.55,10.2,-23.25,10.71,27.82,80.0-90.0
80.0,1234.0,-2.05,-4.89,8.21,-10.2,-5.5,-6.79,27.8,80.0-90.0
80.0,2355.0,0.17,5.13,9.94,11.88,9.48,6.44,27.78,80.0-90.0
80.0,0.0,3.67,4.89,13.95,9.18,-22.13,9.51,27.79,80.0-90.0
80.0,1396.0,-1.72,-5.74,7.63,-11.08,-0.86,-8.39,27.78,80.0-90.0
80.0,2316.0,-2.52,-4.2,8.04,-10.2,15.72,-7.74,27.79,80.0-90.0
80.0,0.0,2.8,4.26,13.08,7.73,-20.33,8.13,27.79,80.0-90.0
80.0,880.0,-1.59,-6.46,6.99,-11.65,4.42,-9.64,27.79,80.0-90.0
80.0,2418.0,-1.4,-3.63,8.8,-8.78,14.29,-6.16,27.79,80.0-90.0
80.0,0.0,-0.47,7.26,11.05,14.06,-2.68,10.07,27.79,80.0-90.0
80.0,1084.0,-1.65,-6.8,6.27,-11.77,9.62,-10.67,27.8,80.0-90.0
80.0,1557.0,-0.26,-2.92,9.31,-6.63,13.57,-4.78,27.78,80.0-90.0
80.0,651.0,-0.01,7.64,11.93,13.96,-8.9,11.02,27.78,80.0-90.0
80.0,2387.0,-0.91,2.19,11.57,2.54,-17.43,4.09,27.81,80.0-90.0
80.0,1360.0,0.98,-2.19,9.65,-4.09,13.88,-3.48,27.81,80.0-90.0
80.0,1834.0,0.52,7.8,12.77,13.91,-14.0,11.78,27.81,80.0-90.0
80.0,1279.0,-1.99,1.06,10.97,-0.11,-16.59,2.29,27.81,80.0-90.0
80.0,817.0,-2.47,-7.1,4.67,-11.98,20.06,-12.02,27.81,80.0-90.0
80.0,2157.0,1.45,7.59,13.72,13.32,-18.73,12.37,27.81,80.0-90.0
80.0,1616.0,-2.94,-0.07,10.56,-2.64,-15.68,0.43,27.8,80.0-90.0
80.0,1072.0,-2.93,-6.93,4.44,-12.17,21.71,-11.9,27.79,80.0-90.0
80.0,2300.0,2.5,0.52,9.77,3.55,14.55,0.66,27.79,80.0-90.0
80.0,1757.0,-3.17,-1.23,9.91,-4.92,-14.18,-1.57,27.8,80.0-90.0
80.0,976.0,-3.49,-6.55,4.48,-12.12,22.39,-11.64,27.81,80.0-90.0
80.0,1483.0,2.18,1.93,9.54,6.59,14.92,2.26,27.8,80.0-90.0
80.0,1153.0,3.55,6.32,15.19,11.48,-24.06,11.83,27.81,80.0-90.0
80.0,372.0,-3.73,-5.98,5.01,-11.91,21.52,-10.83,27.8,80.0-90.0
80.0,2841.0,1.39,3.22,9.55,9.1,13.53,4.06,27.8,80.0-90.0
80.0,1807.0,3.75,5.85,14.98,10.69,-23.86,11.18,27.82,80.0-90.0
80.0,2087.0,-2.22,-4.46,8.61,-9.82,-8.23,-5.95,27.79,80.0-90.0
80.0,2785.0,0.66,4.49,9.61,11.27,11.51,5.74,27.78,80.0-90.0
80.0,0.0,3.76,5.2,14.38,9.67,-22.88,9.98,27.79,80.0-90.0
80.0,1182.0,-1.63,-5.46,7.97,-10.73,-3.52,-7.57,27.79,80.0-90.0
80.0,2459.0,-3.22,-4.31,7.53,-10.5,16.44,-8.12,27.8,80.0-90.0
80.0,528.0,3.03,4.63,13.67,8.46,-21.26,8.68,27.79,80.0-90.0
80.0,1181.0,-1.25,-6.29,7.26,-11.45,1.55,-9.0,27.79,80.0-90.0
80.0,2756.0,-2.32,-3.72,8.55,-9.33,14.61,-6.88,27.8,80.0-90.0
80.0,986.0,-0.27,6.77,10.5,13.5,-0.25,9.37,27.78,80.0-90.0
80.0,1981.0,-1.11,-6.8,6.44,-11.88,6.89,-10.24,27.77,80.0-90.0
80.0,2212.0,-1.02,-3.19,9.34,-7.54,13.04,-5.28,27.78,80.0-90.0
80.0,1759.0,-0.01,7.35,11.19,13.96,-5.84,10.71,27.8,80.0-90.0
80.0,2927.0,-0.39,2.53,11.96,3.37,-17.92,4.67,27.81,80.0-90.0
80.0,2911.0,0.45,-2.56,9.83,-5.13,13.22,-4.0,27.78,80.0-90.0
80.0,1171.0,0.56,7.66,12.28,13.93,-11.68,11.54,27.77,80.0-90.0
80.0,2369.0,-1.97,1.54,11.46,0.86,-17.16,2.73,27.78,80.0-90.0
80.0,980.0,-1.91,-7.18,4.63,-11.83,19.26,-11.89,27.79,80.0-90.0
80.0,2448.0,1.41,7.62,13.43,13.35,-17.22,12.24,27.79,80.0-90.0
80.0,1941.0,-2.85,0.39,10.8,-1.81,-15.98,1.04,27.78,80.0-90.0
80.0,1306.0,-2.63,-6.92,4.28,-11.83,21.51,-11.76,27.78,80.0-90.0
80.0,1712.0,2.35,0.04,9.92,2.38,14.24,0.08,27.77,80.0-90.0
80.0,1967.0,-3.37,-0.72,10.35,-4.38,-15.25,-0.79,27.78,80.0-90.0
80.0,1399.0,-3.09,-6.64,4.33,-11.95,22.47,-11.58,27.8,80.0-90.0
80.0,2688.0,2.09,1.43,9.79,5.49,15.05,1.59,27.8,80.0-90.0
80.0,622.0,3.52,6.48,15.12,11.73,-23.93,12.04,27.77,80.0-90.0
80.0,1705.0,-3.68,-6.17,4.74,-12.14,21.61,-11.17,27.79,80.0-90.0
80.0,1935.0,1.47,2.87,9.54,8.65,14.35,3.36,27.78,80.0-90.0
80.0,1295.0,4.11,5.92,15.1,10.92,-24.28,11.4,27.78,80.0-90.0
80.0,1617.0,-2.48,-4.15,8.84,-9.48,-8.72,-5.58,27.79,80.0-90.0
80.0,2242.0,0.57,4.32,9.67,10.74,11.97,5.39,27.81,80.0-90.0
80.0,348.0,4.1,5.36,14.41,9.97,-23.28,10.5,27.81,80.0-90.0
80.0,458.0,-1.87,-5.33,8.11,-10.7,-4.28,-7.19,27.81,80.0-90.0
80.0,1872.0,-3.14,-4.47,7.54,-10.96,16.17,-8.24,27.81,80.0-90.0
80.0,0.0,3.18,4.6,13.56,8.4,-21.36,8.82,27.77,80.0-90.0
80.0,1520.0,-1.43,-6.23,7.41,-11.4,1.47,-9.22,27.79,80.0-90.0
80.0,1698.0,-2.02,-3.88,8.43,-9.47,14.99,-6.99,27.8,80.0-90.0
80.0,0.0,-0.48,6.93,10.74,13.67,-0.24,9.32,27.78,80.0-90.0
80.0,1310.0,-1.18,-6.93,6.49,-11.8,7.88,-10.44,27.79,80.0-90.0
80.0,2139.0,-0.58,-3.14,9.24,-7.25,13.34,-5.02,27.79,80.0-90.0
80.0,347.0,-0.26,7.5,11.58,14.03,-7.19,10.89,27.78,80.0-90.0
80.0,1997.0,-0.71,2.38,11.68,3.31,-17.33,4.64,27.77,80.0-90.0
80.0,2295.0,0.78,-2.23,9.74,-4.29,13.11,-3.43,27.8,80.0-90.0
80.0,785.0,0.56,7.71,12.6,13.76,-13.39,11.73,27.79,80.0-90.0
80.0,1529.0,-2.14,1.27,10.93,0.39,-16.27,2.33,27.77,80.0-90.0
80.0,1639.0,-2.44,-7.07,4.69,-12.18,20.44,-12.28,27.77,80.0-90.0
80.0,239.0,1.7,7.51,13.85,13.18,-18.99,12.22,27.77,80.0-90.0
80.0,1558.0,-2.99,-0.0,10.48,-2.55,-15.57,0.27,27.77,80.0-90.0
80.0,353.0,-3.03,-6.94,4.26,-12.18,22.59,-11.93,27.78,80.0-90.0
80.0,775.0,2.46,0.81,9.67,4.05,14.58,1.07,27.8,80.0-90.0
80.0,1764.0,-3.27,-1.35,9.93,-5.21,-14.09,-1.72,27.81,80.0-90.0
80.0,798.0,-3.55,-6.42,4.41,-12.07,22.58,-11.28,27.8,80.0-90.0
80.0,1389.0,1.98,2.34,9.6,7.43,14.55,2.81,27.77,80.0-90.0
80.0,928.0,3.65,6.12,15.18,11.26,-24.15,11.55,27.79,80.0-90.0
80.0,999.0,-3.89,-5.77,5.18,-11.88,21.02,-10.6,27.8,80.0-90.0
80.0,531.0,1.27,-4.85,10.47,-8.55,-0.59,-3.16,27.42,80.0-90.0
80.0,2461.0,-1.82,2.46,10.41,4.62,-2.95,1.79,27.43,80.0-90.0
80.0,2314.0,-0.57,-4.61,10.8,-9.44,-2.22,-3.27,27.4,80.0-90.0
80.0,2444.0,2.12,2.62,10.15,1.43,-4.83,4.35,27.42,80.0-90.0
80.0,1585.0,-1.57,0.32,10.81,2.96,-2.19,0.84,27.41,80.0-90.0
80.0,1372.0,-0.05,2.47,9.14,-0.77,0.24,2.94,27.41,80.0-90.0
80.0,1897.0,-1.66,3.83,10.44,7.43,-3.59,3.39,27.43,80.0-90.0
80.0,1713.0,-2.16,-5.23,9.49,-10.35,1.61,-6.82,27.42,80.0-90.0
80.0,2879.0,0.21,3.18,8.93,0.9,0.95,2.03,27.41,80.0-90.0
80.0,977.0,-1.93,-3.58,9.31,-2.58,4.81,-5.43,27.41,80.0-90.0
80.0,2485.0,1.21,-3.24,7.82,-7.1,8.19,-3.46,27.42,80.0-90.0
80.0,2230.0,0.68,6.66,11.81,13.16,-7.47,8.47,27.42,80.0-90.0
80.0,1654.0,-1.31,-3.4,9.5,-2.17,0.02,-3.2,27.4,80.0-90.0
80.0,2096.0,0.77,5.83,10.26,6.97,0.07,7.58,27.41,80.0-90.0
80.0,2128.0,-1.42,3.45,11.18,8.59,-8.8,5.23,27.39,80.0-90.0
80.0,2933.0,-2.01,-7.06,7.28,-15.46,6.92,-10.04,27.42,80.0-90.0
80.0,1429.0,1.06,2.74,8.41,2.88,9.7,2.79,27.42,80.0-90.0
80.0,1249.0,-1.7,-3.65,9.17,-4.55,-4.27,-5.63,27.42,80.0-90.0
80.0,2608.0,-1.9,-5.76,9.34,-13.11,9.24,-8.45,27.43,80.0-90.0
80.0,638.0,0.31,7.12,10.85,12.69,-0.77,8.58,27.4,80.0-90.0
80.0,1651.0,-1.24,2.15,11.02,4.95,-11.67,2.5,27.43,80.0-90.0
80.0,2890.0,1.52,-1.34,8.78,-2.13,11.16,-0.61,27.42,80.0-90.0
80.0,304.0,1.45,7.17,13.46,13.33,-15.48,11.12,27.42,80.0-90.0
80.0,469.0,-2.57,-2.13,9.45,-4.34,-8.72,-2.27,27.41,80.0-90.0
80.0,2927.0,1.29,3.92,8.59,7.76,12.67,5.1,27.4,80.0-90.0
80.0,510.0,3.16,5.39,13.39,11.27,-18.17,8.73,27.44,80.0-90.0
80.0,327.0,-1.24,-5.77,8.35,-9.95,-1.43,-7.43,27.44,80.0-90.0
80.0,2928.0,-1.68,-4.7,9.14,-9.79,11.21,-6.88,27.43,80.0-90.0
80.0,465.0,0.36,3.57,11.98,7.43,-15.82,4.58,27.42,80.0-90.0
80.0,742.0,-1.55,-6.98,6.8,-12.33,10.08,-10.47,27.43,80.0-90.0
80.0,2679.0,1.48,-2.25,8.99,-3.35,12.99,-2.94,27.42,80.0-90.0
80.0,719.0,1.34,7.73,13.78,13.18,-16.08,11.6,27.42,80.0-90.0
80.0,1067.0,-2.57,-7.16,5.49,-13.63,16.56,-10.44,27.44,80.0-90.0
80.0,2928.0,2.26,1.04,8.72,3.57,14.92,1.63,27.42,80.0-90.0
80.0,0.0,2.95,6.62,14.96,12.43,-20.84,11.93,27.44,80.0-90.0
80.0,818.0,-2.39,-2.92,9.47,-7.12,-11.19,-3.74,27.43,80.0-90.0
80.0,2245.0,1.07,3.91,8.77,9.35,14.84,4.17,27.43,80.0-90.0
80.0,43.0,3.32,5.55,14.32,11.15,-20.53,9.34,27.42,80.0-90.0
80.0,221.0,-1.23,-5.13,8.62,-10.34,-5.87,-7.45,27.41,80.0-90.0
80.0,1909.0,-3.15,-4.95,7.93,-10.7,13.62,-8.5,27.42,80.0-90.0
80.0,0.0,2.29,4.33,13.36,8.43,-19.04,7.61,27.43,80.0-90.0
80.0,1610.0,-1.05,-6.33,7.62,-11.63,2.07,-8.73,27.43,80.0-90.0
80.0,2928.0,-1.22,-4.05,8.85,-7.92,12.63,-5.28,27.42,80.0-90.0
80.0,64.0,0.05,7.38,11.31,13.21,-3.72,10.79,27.42,80.0-90.0
80.0,1287.0,-1.46,-6.69,6.51,-11.53,10.09,-10.12,27.44,80.0-90.0
80.0,2433.0,0.88,-2.88,9.24,-4.16,13.01,-3.63,27.44,80.0-90.0
80.0,209.0,0.87,7.74,12.82,13.13,-12.08,11.03,27.42,80.0-90.0
80.0,1648.0,-2.1,1.07,11.05,0.04,-16.46,1.56,27.44,80.0-90.0
80.0,2066.0,2.11,-1.29,9.18,-0.13,14.59,-2.0,27.43,80.0-90.0
80.0,939.0,1.74,7.6,14.19,12.66,-17.75,11.51,27.43,80.0-90.0
80.0,2094.0,-2.73,-0.41,10.44,-3.44,-15.56,-0.14,27.41,80.0-90.0
80.0,2501.0,-3.41,-6.77,4.63,-12.06,19.36,-11.2,27.42,80.0-90.0
80.0,1319.0,2.68,6.99,15.12,11.74,-21.46,11.98,27.4,80.0-90.0
80.0,2191.0,-2.48,-1.88,9.72,-6.09,-13.8,-1.83,27.43,80.0-90.0
80.0,1620.0,-3.92,-6.37,5.07,-11.83,19.08,-10.73,27.42,80.0-90.0
80.0,1328.0,1.36,3.16,8.97,8.66,15.57,3.57,27.41,80.0-90.0
80.0,1701.0,-2.01,-3.36,9.12,-8.17,-10.92,-4.44,27.41,80.0-90.0
80.0,789.0,-4.06,-5.85,6.03,-11.49,17.25,-10.44,27.44,80.0-90.0
80.0,2016.0,0.52,4.62,9.21,10.74,13.02,5.19,27.43,80.0-90.0
80.0,2528.0,3.24,5.21,14.51,9.52,-21.81,9.29,27.42,80.0-90.0
80.0,780.0,-3.68,-5.28,7.2,-10.88,15.48,-8.85,27.44,80.0-90.0
80.0,1887.0,-0.05,5.88,9.56,11.96,8.67,7.57,27.41,80.0-90.0
80.0,1194.0,2.6,4.43,13.68,7.91,-20.67,8.47,27.42,80.0-90.0
80.0,738.0,-0.91,-6.04,7.5,-10.99,1.21,-8.22,27.42,80.0-90.0
80.0,2394.0,-0.2,6.7,10.25,12.72,3.52,8.97,27.42,80.0-90.0
80.0,848.0,1.37,3.65,12.79,6.36,-19.2,6.53,27.42,80.0-90.0
80.0,1334.0,-1.11,-6.51,6.83,-11.1,7.03,-9.99,27.42,80.0-90.0
80.0,2928.0,-0.58,-3.73,9.11,-6.38,13.36,-5.71,27.41,80.0-90.0
80.0,252.0,-0.03,2.8,12.11,4.18,-18.2,4.84,27.43,80.0-90.0
80.0,659.0,-1.58,-6.8,6.2,-11.46,12.15,-10.85,27.43,80.0-90.0
80.0,1689.0,0.77,-2.86,9.34,-3.91,13.88,-3.68,27.43,80.0-90.0
80.0,0.0,0.91,7.82,12.77,12.83,-12.22,11.7,27.44,80.0-90.0
80.0,1846.0,-2.16,-6.9,5.51,-11.62,16.36,-11.11,27.45,80.0-90.0
80.0,2279.0,1.84,-1.77,9.23,-1.0,14.87,-2.06,27.41,80.0-90.0
80.0,0.0,1.56,7.75,14.03,12.32,-17.28,11.87,27.42,80.0-90.0
80.0,2047.0,-2.61,0.33,10.58,-2.02,-16.46,0.89,27.42,80.0-90.0
80.0,1264.0,2.46,-0.64,9.17,1.57,15.98,-0.99,27.43,80.0-90.0
80.0,0.0,2.19,7.65,14.78,13.3,-20.38,12.24,27.42,80.0-90.0
80.0,1568.0,-2.86,-1.06,10.17,-4.86,-15.59,-1.34,27.43,80.0-90.0
80.0,1308.0,-3.75,-6.43,4.5,-12.09,21.29,-11.73,27.42,80.0-90.0
80.0,1230.0,2.86,7.12,15.39,12.8,-22.93,12.6,27.41,80.0-90.0
80.0,1455.0,-2.64,-2.18,9.56,-6.98,-14.12,-2.55,27.43,80.0-90.0
80.0,1860.0,-4.17,-6.1,4.82,-12.12,20.3,-11.15,27.41,80.0-90.0
80.0,1088.0,1.5,2.77,9.03,8.1,16.11,3.46,27.42,80.0-90.0
80.0,1732.0,-2.23,-3.23,9.13,-8.55,-11.77,-4.29,27.43,80.0-90.0
80.0,944.0,-4.14,-5.73,5.48,-12.07,18.5,-10.79,27.42,80.0-90.0
80.0,1116.0,0.68,4.1,9.12,10.49,14.76,4.91,27.41,80.0-90.0
80.0,1289.0,3.58,5.48,14.95,11.0,-22.71,10.27,27.41,80.0-90.0
80.0,752.0,-3.99,-5.29,6.49,-11.8,16.87,-9.81,27.4,80.0-90.0
80.0,2149.0,0.14,5.22,9.21,11.97,11.88,6.74,27.42,80.0-90.0
80.0,95.0,3.15,4.85,14.33,9.78,-21.51,9.55,27.41,80.0-90.0
80.0,1093.0,-0.9,-5.75,7.94,-11.56,-2.82,-7.78,27.43,80.0-90.0
80.0,1739.0,-0.16,6.12,9.63,12.87,7.64,8.36,27.42,80.0-90.0
80.0,0.0,2.49,4.2,13.57,8.66,-20.03,8.24,27.41,80.0-90.0
80.0,890.0,-0.72,-6.32,7.55,-11.98,1.73,-9.52,27.4,80.0-90.0
80.0,2018.0,-1.85,-4.18,8.61,-9.07,13.54,-7.05,27.42,80.0-90.0
80.0,0.0,1.36,3.48,12.71,7.09,-18.67,6.55,27.42,80.0-90.0
80.0,1067.0,-0.86,-6.64,6.94,-12.06,6.52,-10.56,27.41,80.0-90.0
80.0,2217.0,-0.51,-3.64,9.08,-7.18,13.43,-5.58,27.42,80.0-90.0
80.0,0.0,0.03,7.68,11.42,13.77,-5.68,11.17,27.42,80.0-90.0
80.0,1035.0,-1.36,-6.82,6.52,-12.32,11.18,-11.0,27.42,80.0-90.0
80.0,2071.0,0.67,-2.96,9.26,-5.19,13.63,-4.04,27.43,80.0-90.0
80.0,0.0,0.7,8.02,12.48,13.71,-11.38,12.15,27.43,80.0-90.0
80.0,1238.0,-1.54,1.64,10.99,1.76,-16.73,3.33,27.42,80.0-90.0
80.0,1119.0,1.62,-2.23,9.37,-2.78,14.52,-3.14,27.42,80.0-90.0
80.0,0.0,1.18,8.04,13.54,13.56,-16.0,12.22,27.44,80.0-90.0
80.0,2285.0,-2.4,0.77,10.41,-0.43,-16.06,1.45,27.42,80.0-90.0
80.0,483.0,-2.85,-6.92,5.23,-12.35,19.19,-12.48,27.4,80.0-90.0
80.0,1952.0,1.89,7.8,14.5,13.15,-19.87,12.56,27.42,80.0-90.0
80.0,1467.0,-2.9,-0.02,10.09,-2.58,-15.69,0.32,27.43,80.0-90.0
80.0,258.0,-3.6,-6.76,4.81,-12.24,20.67,-11.99,27.42,80.0-90.0
80.0,1456.0,2.5,0.21,9.05,3.61,16.84,0.47,27.43,80.0-90.0
80.0,697.0,-2.91,-0.94,9.71,-4.7,-15.16,-0.96,27.42,80.0-90.0
80.0,974.0,-3.94,-6.49,4.55,-12.3,21.08,-11.95,27.4,80.0-90.0
80.0,1372.0,2.17,1.39,8.92,5.98,17.63,1.66,27.43,80.0-90.0
80.0,256.0,3.09,6.83,15.79,12.25,-24.32,12.16,27.41,80.0-90.0
80.0,675.0,-4.33,-6.25,4.64,-12.2,20.91,-11.69,27.4,80.0-90.0
80.0,1767.0,1.66,2.49,8.99,8.02,16.75,2.98,27.42,80.0-90.0
80.0,601.0,3.4,6.27,15.8,11.73,-24.35,11.83,27.41,80.0-90.0
80.0,1437.0,-2.11,-3.49,8.94,-9.01,-11.38,-4.53,27.41,80.0-90.0
80.0,2071.0,1.14,3.55,9.13,9.76,15.49,4.61,27.41,80.0-90.0
80.0,0.0,3.56,5.71,15.48,11.29,-23.9,11.12,27.39,80.0-90.0
80.0,752.0,-1.6,-4.38,8.68,-10.17,-8.98,-5.84,27.41,80.0-90.0
80.0,2902.0,-4.15,-5.38,6.2,-11.68,17.54,-9.89,27.41,80.0-90.0
80.0,0.0,3.56,5.3,14.9,10.69,-22.77,10.13,27.42,80.0-90.0
80.0,1425.0,-1.17,-5.12,8.32,-10.96,-5.87,-7.19,27.41,80.0-90.0
80.0,2209.0,-3.63,-5.05,6.89,-11.11,16.33,-9.08,27.41,80.0-90.0
80.0,176.0,-0.15,5.76,9.73,12.39,8.7,7.49,27.4,80.0-90.0
80.0,1818.0,-0.9,-5.81,7.96,-11.54,-2.1,-8.21,27.42,80.0-90.0
80.0,2286.0,-2.9,-4.69,7.71,-10.37,15.19,-8.01,27.41,80.0-90.0
80.0,1482.0,-0.39,6.54,10.14,13.04,4.26,8.91,27.42,80.0-90.0
80.0,1835.0,2.07,3.86,13.02,7.85,-19.62,7.75,27.44,80.0-90.0
80.0,1034.0,-1.96,-4.24,8.48,-9.13,14.17,-6.9,27.43,80.0-90.0
80.0,2373.0,-0.31,7.12,10.78,13.5,-0.24,9.77,27.42,80.0-90.0
80.0,1796.0,0.99,3.35,12.37,6.5,-18.35,6.41,27.42,80.0-90.0
80.0,1520.0,-1.12,-6.66,6.86,-12.12,8.12,-10.8,27.41,80.0-90.0
80.0,2415.0,-0.03,7.55,11.46,13.64,-5.23,10.71,27.4,80.0-90.0
80.0,751.0,-0.05,2.82,11.71,4.76,-17.54,5.29,27.43,80.0-90.0
80.0,1346.0,-1.47,-6.82,6.45,-12.2,11.7,-11.25,27.4,80.0-90.0
80.0,2661.0,0.68,-3.04,9.2,-5.16,14.21,-4.21,27.41,80.0-90.0
80.0,1217.0,-0.94,2.08,11.18,2.73,-17.19,4.21,27.43,80.0-90.0
80.0,1773.0,-2.08,-6.95,5.88,-12.12,15.46,-11.8,27.42,80.0-90.0
80.0,2551.0,1.66,-2.33,9.33,-3.07,14.78,-3.1,27.43,80.0-90.0
80.0,363.0,1.16,8.01,13.48,13.36,-16.17,12.19,27.41,80.0-90.0
80.0,912.0,-2.54,-7.01,5.42,-12.04,18.38,-12.33,27.42,80.0-90.0
80.0,2895.0,2.05,-1.46,9.25,-0.57,15.63,-2.08,27.43,80.0-90.0
80.0,368.0,1.67,7.9,14.36,13.07,-19.63,12.54,27.4,80.0-90.0
80.0,1961.0,-2.62,0.31,10.09,-1.97,-15.97,0.92,27.42,80.0-90.0
80.0,2926.0,2.64,-0.62,9.2,1.57,16.38,-0.61,27.44,80.0-90.0
80.0,880.0,2.19,7.64,15.02,12.81,-22.22,12.79,27.42,80.0-90.0
80.0,2183.0,-2.94,-0.43,9.69,-3.94,-15.27,-0.38,27.42,80.0-90.0
80.0,1875.0,-3.79,-6.77,4.51,-12.32,21.37,-12.3,27.4,80.0-90.0
80.0,1820.0,2.71,7.23,15.58,12.31,-24.13,12.5,27.41,80.0-90.0
80.0,2927.0,-2.85,-1.28,9.5,-5.67,-14.52,-1.82,27.42,80.0-90.0
80.0,2224.0,-4.13,-6.63,4.45,-12.21,21.66,-12.02,27.41,80.0-90.0
80.0,2118.0,1.93,1.89,9.27,6.86,17.05,2.32,27.41,80.0-90.0
80.0,2695.0,-2.69,-2.23,9.11,-7.25,-13.27,-2.99,27.42,80.0-90.0
80.0,1936.0,-4.29,-6.25,4.7,-11.94,21.2,-11.26,27.43,80.0-90.0
80.0,2641.0,1.54,2.88,9.39,8.56,15.83,3.65,27.42,80.0-90.0
80.0,2341.0,3.68,6.12,15.55,11.47,-24.53,11.69,27.43,80.0-90.0
80.0,884.0,-4.23,-5.82,5.17,-11.72,20.16,-10.67,27.45,80.0-90.0
80.0,2433.0,0.91,3.94,9.38,10.1,14.34,4.82,27.43,80.0-90.0
80.0,2005.0,3.87,5.62,15.15,10.8,-23.77,10.82,27.42,80.0-90.0
80.0,2005.0,-1.51,-4.6,8.49,-10.47,-7.97,-6.29,27.44,80.0-90.0
80.0,2928.0,0.52,4.78,9.54,11.27,12.05,5.97,27.42,80.0-90.0
80.0,1040.0,3.56,5.06,14.63,10.11,-22.59,9.92,27.42,80.0-90.0
80.0,1214.0,-1.18,-5.42,8.21,-11.19,-4.6,-7.49,27.41,80.0-90.0
80.0,2927.0,-3.22,-4.9,7.15,-10.67,16.59,-8.62,27.42,80.0-90.0
80.0,431.0,3.11,4.59,13.86,9.21,-21.22,9.06,27.41,80.0-90.0
80.0,1475.0,-1.01,-5.98,7.78,-11.49,-0.47,-8.71,27.42,80.0-90.0
80.0,2927.0,-2.49,-4.44,8.04,-9.76,15.07,-7.49,27.43,80.0-90.0
80.0,763.0,-0.44,6.63,10.53,13.18,2.11,9.03,27.41,80.0-90.0
80.0,2128.0,-0.87,-6.55,7.35,-12.07,3.35,-9.77,27.45,80.0-90.0
80.0,2928.0,-1.6,-3.79,8.62,-8.37,14.37,-6.47,27.44,80.0-90.0
80.0,1134.0,-0.22,7.2,11.01,13.56,-2.39,10.09,27.42,80.0-90.0
80.0,2640.0,0.6,3.15,12.15,5.46,-17.95,5.98,27.42,80.0-90.0
80.0,2928.0,-0.47,-3.34,9.19,-6.83,13.74,-5.19,27.4,80.0-90.0
80.0,1400.0,-0.02,7.52,11.88,13.59,-7.74,10.94,27.42,80.0-90.0
80.0,2928.0,-0.63,2.47,11.45,3.57,-16.81,4.71,27.42,80.0-90.0
80.0,855.0,-1.89,-7.04,5.79,-11.89,14.84,-11.78,27.42,80.0-90.0
80.0,2522.0,0.45,7.82,12.66,13.85,-12.75,11.81,27.43,80.0-90.0
80.0,2224.0,-1.73,1.69,10.9,1.58,-16.38,3.19,27.42,80.0-90.0
80.0,1746.0,-2.42,-7.09,5.3,-11.98,18.13,-12.13,27.41,80.0-90.0
80.0,2926.0,2.07,-1.49,9.58,-1.26,14.43,-2.03,27.42,80.0-90.0
80.0,1746.0,-2.52,0.81,10.6,-0.97,-16.08,1.63,27.44,80.0-90.0
80.0,1665.0,-3.01,-7.07,4.76,-12.17,20.48,-12.34,27.42,80.0-90.0
80.0,2121.0,2.47,-0.39,9.4,1.66,15.49,-0.47,27.41,80.0-90.0
80.0,1872.0,2.15,7.34,14.83,12.78,-22.09,12.56,27.41,80.0-90.0
80.0,2525.0,-3.58,-6.86,4.33,-12.01,22.12,-12.18,27.41,80.0-90.0
80.0,830.0,2.5,0.61,9.42,4.16,16.14,0.82,27.43,80.0-90.0
80.0,1488.0,2.9,6.96,15.22,12.61,-23.51,12.51,27.39,80.0-90.0
80.0,1238.0,-2.85,-1.8,9.62,-6.54,-14.27,-2.52,27.42,80.0-90.0
80.0,2927.0,2.04,1.9,9.55,6.72,15.82,2.32,27.4,80.0-90.0
80.0,0.0,3.43,6.51,15.28,12.23,-24.1,12.12,27.41,80.0-90.0
80.0,1603.0,-2.48,-2.91,9.26,-8.18,-12.11,-4.04,27.42,80.0-90.0
80.0,2520.0,-4.09,-5.98,4.99,-11.94,20.77,-10.86,27.4,80.0-90.0
80.0,0.0,3.81,6.01,15.22,11.44,-24.13,11.54,27.41,80.0-90.0
80.0,1814.0,-1.97,-3.95,8.81,-9.72,-9.73,-5.55,27.41,80.0-90.0
80.0,2192.0,-3.83,-5.53,5.73,-11.71,19.23,-10.12,27.41,80.0-90.0
80.0,287.0,3.96,5.44,14.76,10.52,-23.2,10.56,27.39,80.0-90.0
80.0,1846.0,-1.55,-4.93,8.41,-10.72,-6.42,-6.93,27.4,80.0-90.0
80.0,1393.0,-3.33,-5.08,6.68,-11.13,17.48,-9.12,27.41,80.0-90.0
80.0,1584.0,-0.13,5.59,9.99,12.45,8.22,7.14,27.4,80.0-90.0
80.0,1618.0,-1.24,-5.8,7.97,-11.4,-2.66,-8.18,27.42,80.0-90.0
80.0,728.0,-2.86,-4.51,7.67,-10.11,15.88,-7.84,27.42,80.0-90.0
80.0,1264.0,-0.41,6.3,10.26,13.15,4.13,8.5,27.41,80.0-90.0
80.0,1327.0,2.27,4.14,13.02,7.7,-19.77,7.81,27.41,80.0-90.0
80.0,1232.0,-1.97,-3.97,8.56,-9.01,14.29,-6.67,27.41,80.0-90.0
80.0,1182.0,-0.4,6.95,10.84,13.56,-0.74,9.63,27.4,80.0-90.0
80.0,1101.0,1.05,3.51,12.25,6.02,-18.1,6.33,27.43,80.0-90.0
80.0,781.0,-1.31,-6.82,6.7,-12.17,8.95,-11.0,27.42,80.0-90.0
80.0,2229.0,-0.04,7.37,11.42,13.93,-5.84,10.59,27.41,80.0-90.0
80.0,0.0,-0.3,2.7,11.68,4.15,-17.2,4.75,27.4,80.0-90.0
80.0,435.0,-1.62,-7.07,6.05,-12.2,13.31,-11.61,27.41,80.0-90.0
80.0,1986.0,0.85,-2.4,9.63,-4.17,13.36,-3.42,27.41,80.0-90.0
80.0,0.0,-1.53,1.82,11.22,1.9,-16.58,3.36,27.41,80.0-90.0
80.0,937.0,-2.04,-7.18,5.5,-12.32,16.79,-11.98,27.42,80.0-90.0
80.0,1938.0,1.76,-1.47,9.62,-1.39,13.85,-1.86,27.38,80.0-90.0
80.0,0.0,1.43,7.57,13.57,13.44,-17.3,12.24,27.39,80.0-90.0
80.0,1079.0,-2.62,-7.11,4.95,-12.4,19.57,-12.22,27.44,80.0-90.0
80.0,1770.0,2.31,-0.45,9.5,1.28,14.99,-0.78,27.42,80.0-90.0
80.0,0.0,2.16,7.36,14.4,13.22,-20.52,12.41,27.44,80.0-90.0
80.0,1328.0,-3.08,-0.6,10.23,-4.17,-15.37,-1.02,27.39,80.0-90.0
80.0,2271.0,2.35,0.71,9.42,3.96,15.46,0.99,27.41,80.0-90.0
80.0,0.0,2.94,6.82,14.98,12.51,-22.41,12.42,27.41,80.0-90.0
80.0,1933.0,-3.07,-1.68,9.77,-6.09,-13.63,-2.49,27.43,80.0-90.0
80.0,2928.0,-3.6,-6.4,4.65,-12.53,20.82,-11.26,27.42,80.0-90.0
80.0,466.0,3.48,6.39,15.09,12.31,-23.06,12.16,27.41,80.0-90.0
80.0,2631.0,-2.51,-3.03,9.41,-8.0,-11.82,-4.26,27.43,80.0-90.0
80.0,816.0,-3.74,-5.88,5.3,-12.47,19.37,-10.65,27.42,80.0-90.0
80.0,1221.0,0.99,3.78,9.4,10.08,13.68,4.59,27.44,80.0-90.0
80.0,1229.0,-2.0,-4.26,8.96,-9.45,-8.92,-6.04,27.42,80.0-90.0
80.0,505.0,-3.66,-5.34,6.2,-12.18,17.68,-9.83,27.41,80.0-90.0
80.0,1373.0,0.31,4.88,9.48,11.52,11.12,6.27,27.41,80.0-90.0
80.0,1214.0,3.4,5.07,14.22,10.46,-21.37,9.83,27.4,80.0-90.0
80.0,637.0,-3.28,-4.61,7.27,-11.51,15.45,-8.44,27.42,80.0-90.0
80.0,1719.0,-0.19,5.87,9.76,12.9,7.42,8.06,27.43,80.0-90.0
80.0,245.0,2.79,4.41,13.3,9.39,-19.2,8.61,27.42,80.0-90.0
80.0,511.0,-1.05,-6.44,7.79,-12.29,1.37,-9.66,27.41,80.0-90.0
80.0,1600.0,-0.47,6.6,10.13,13.62,2.8,9.25,27.43,80.0-90.0
80.0,291.0,1.52,3.75,12.62,7.53,-18.06,6.77,27.4,80.0-90.0
80.0,775.0,-1.16,-6.8,7.26,-12.53,6.39,-10.74,27.39,80.0-90.0
80.0,2046.0,-0.73,-3.27,9.31,-7.83,12.5,-5.46,27.4,80.0-90.0
80.0,0.0,0.08,2.99,11.83,5.61,-16.62,5.4,27.41,80.0-90.0
80.0,977.0,-1.43,-7.08,6.53,-12.73,11.39,-11.35,27.42,80.0-90.0
80.0,1594.0,0.49,-2.62,9.58,-5.53,12.75,-3.94,27.41,80.0-90.0
80.0,0.0,0.67,7.73,12.25,13.85,-11.65,12.13,27.41,80.0-90.0
80.0,1443.0,-1.95,-7.15,5.97,-12.84,15.43,-11.87,27.41,80.0-90.0
80.0,2928.0,1.48,-1.74,9.59,-2.75,13.54,-2.7,27.4,80.0-90.0
80.0,0.0,1.33,7.71,13.31,13.7,-16.78,12.6,27.41,80.0-90.0
80.0,2214.0,-2.71,0.64,10.43,-0.33,-15.04,1.01,27.42,80.0-90.0
80.0,1712.0,2.12,-0.68,9.43,0.33,14.67,-1.34,27.44,80.0-90.0
80.0,0.0,1.99,7.53,14.3,13.77,-20.18,12.95,27.42,80.0-90.0
80.0,2177.0,-3.15,-0.48,9.98,-3.3,-14.18,-0.82,27.39,80.0-90.0
80.0,2272.0,-3.32,-6.74,4.81,-12.99,20.68,-11.83,27.42,80.0-90.0
80.0,527.0,2.84,6.9,15.07,12.74,-22.51,12.83,27.42,80.0-90.0
80.0,1986.0,-3.17,-1.66,9.59,-5.36,-13.18,-2.12,27.42,80.0-90.0
80.0,656.0,-3.59,-6.38,4.93,-13.17,20.19,-11.52,27.42,80.0-90.0
80.0,1346.0,1.67,2.64,9.08,8.04,15.91,3.13,27.4,80.0-90.0
80.0,1469.0,-2.73,-3.09,9.24,-7.73,-11.5,-4.5,27.42,80.0-90.0
80.0,622.0,-3.71,-5.76,5.5,-13.28,18.75,-10.97,27.41,80.0-90.0
80.0,1712.0,0.94,3.9,9.13,10.25,14.38,4.75,27.42,80.0-90.0
80.0,2559.0,3.79,5.45,14.88,11.39,-22.29,10.68,27.41,80.0-90.0
80.0,1295.0,-3.69,-5.22,6.51,-13.05,16.61,-9.83,27.41,80.0-90.0
80.0,1699.0,0.17,5.21,9.28,12.28,11.19,6.85,27.4,80.0-90.0
80.0,848.0,3.55,4.9,14.13,10.6,-21.08,9.81,27.4,80.0-90.0
80.0,973.0,-1.15,-5.88,8.07,-11.51,-2.04,-8.24,27.42,80.0-90.0
80.0,2369.0,-0.45,6.15,9.76,13.41,6.69,8.38,27.42,80.0-90.0
80.0,1232.0,2.46,4.23,13.15,9.06,-19.19,8.1,27.4,80.0-90.0
80.0,2165.0,-0.98,-6.54,7.62,-12.26,3.1,-9.95,27.4,80.0-90.0
80.0,2662.0,-1.58,-3.71,8.94,-9.66,13.22,-6.7,27.41,80.0-90.0
80.0,0.0,1.05,3.4,12.28,7.03,-17.62,6.42,27.41,80.0-90.0
80.0,1331.0,-1.33,-6.81,6.87,-12.59,8.69,-11.0,27.4,80.0-90.0
