Speed,Voice,Acceleration X,Acceleration Y,Acceleration Z,Gyro X,Gyro Y,Gyro Z,Temperature,Speed_Range
80.0,2429.0,7.31,4.01,12.88,4.66,-10.25,3.75,27.2,80.0-90.0
80.0,985.0,-0.54,-3.77,15.5,-5.91,-15.42,0.98,27.22,80.0-90.0
80.0,1504.0,3.38,-3.02,8.73,-10.23,-19.62,-1.54,27.23,80.0-90.0
80.0,1723.0,-2.58,3.52,6.47,11.64,19.89,3.88,27.22,80.0-90.0
80.0,2310.0,4.05,-5.83,11.06,-4.48,8.58,-1.42,27.23,80.0-90.0
80.0,0.0,2.89,-2.32,16.73,-4.29,-5.85,-1.82,27.2,80.0-90.0
80.0,2160.0,7.81,5.0,11.8,3.75,-16.69,4.17,27.2,80.0-90.0
80.0,2150.0,-8.37,-4.43,5.64,-4.58,16.85,-5.0,27.21,80.0-90.0
80.0,167.0,2.93,2.23,8.29,5.35,16.67,-2.21,27.21,80.0-90.0
80.0,2615.0,7.02,3.65,16.54,8.94,-4.72,3.48,27.2,80.0-90.0
80.0,1856.0,-0.18,-5.47,14.57,-11.21,-21.19,-0.64,27.19,80.0-90.0
80.0,2925.0,-1.74,5.56,4.68,10.54,23.15,0.35,27.19,80.0-90.0
80.0,2927.0,5.53,3.14,17.49,10.25,3.12,4.78,27.2,80.0-90.0
80.0,0.0,1.91,-6.36,14.22,-13.89,-22.79,0.09,27.19,80.0-90.0
80.0,2927.0,-6.21,-2.81,1.88,-8.7,-1.49,-2.56,27.2,80.0-90.0
80.0,2927.0,7.65,2.67,17.75,8.02,-1.7,4.38,27.21,80.0-90.0
80.0,0.0,-0.76,-4.84,11.1,-13.31,-22.97,-1.28,27.2,80.0-90.0
80.0,2927.0,-7.32,-3.39,2.57,-6.37,9.39,-4.62,27.2,80.0-90.0
80.0,1472.0,3.47,2.65,12.97,10.31,14.81,-0.26,27.2,80.0-90.0
80.0,1665.0,-5.7,-1.36,4.35,-7.15,-7.45,-2.04,27.2,80.0-90.0
80.0,541.0,-1.7,-5.38,8.2,-6.28,14.88,-4.39,27.19,80.0-90.0
80.0,2926.0,5.75,-0.65,15.2,1.29,-8.0,1.17,27.2,80.0-90.0
80.0,2926.0,-5.07,6.89,5.98,7.82,-5.85,4.44,27.2,80.0-90.0
80.0,0.0,6.95,-7.72,15.65,-11.36,-3.3,-1.89,27.21,80.0-90.0
80.0,2926.0,-0.8,-2.03,7.3,-5.67,-15.04,0.6,27.22,80.0-90.0
80.0,1106.0,-4.27,6.1,5.48,12.81,16.81,2.0,27.18,80.0-90.0
80.0,909.0,5.94,3.03,15.21,5.2,-0.76,1.79,27.19,80.0-90.0
80.0,0.0,-4.68,-4.38,5.74,-6.31,4.94,-3.25,27.2,80.0-90.0
80.0,2926.0,4.16,0.92,14.09,5.95,2.1,-0.06,27.19,80.0-90.0
80.0,1579.0,-2.71,6.54,7.14,7.56,-5.26,2.49,27.2,80.0-90.0
80.0,0.0,-2.02,1.63,8.78,3.57,15.1,-0.7,27.2,80.0-90.0
80.0,2926.0,-0.56,-1.91,7.69,-4.22,-11.89,0.47,27.21,80.0-90.0
80.0,2476.0,-3.16,5.95,6.82,12.42,16.26,2.58,27.19,80.0-90.0
80.0,2531.0,5.01,3.31,14.04,3.23,-5.36,2.93,27.21,80.0-90.0
80.0,0.0,-4.19,-0.96,5.9,-5.51,-6.22,-0.61,27.21,80.0-90.0
80.0,2928.0,4.79,-0.27,13.96,2.54,-3.38,1.45,27.2,80.0-90.0
80.0,1569.0,-4.9,6.97,5.1,8.33,1.98,1.91,27.2,80.0-90.0
80.0,1935.0,2.06,2.29,12.14,4.77,10.28,-1.16,27.19,80.0-90.0
80.0,0.0,1.19,-4.54,10.61,-9.77,-14.61,-2.23,27.19,80.0-90.0
80.0,2925.0,0.93,3.46,11.39,9.99,13.85,0.6,27.21,80.0-90.0
80.0,1313.0,1.23,5.35,10.07,4.53,-9.07,2.43,27.22,80.0-90.0
80.0,1038.0,-3.85,0.76,7.05,0.73,6.93,-0.44,27.19,80.0-90.0
80.0,2925.0,5.36,-7.07,14.54,-9.59,-5.97,-0.92,27.22,80.0-90.0
80.0,2925.0,-3.61,6.42,5.83,10.49,13.11,2.52,27.19,80.0-90.0
80.0,2079.0,5.11,3.37,14.2,3.99,-3.14,1.77,27.19,80.0-90.0
80.0,656.0,-4.02,-1.33,6.62,-4.8,-6.29,-1.16,27.19,80.0-90.0
80.0,2925.0,2.73,-6.66,12.64,-7.05,4.65,-2.91,27.19,80.0-90.0
80.0,2349.0,-4.31,7.01,5.63,7.52,0.88,1.21,27.2,80.0-90.0
80.0,576.0,2.86,2.19,12.86,4.3,6.8,-0.93,27.2,80.0-90.0
80.0,0.0,-0.63,-3.81,9.0,-8.37,-12.73,-1.48,27.2,80.0-90.0
80.0,2926.0,-2.25,-5.29,8.34,-5.54,8.37,-1.77,27.19,80.0-90.0
80.0,534.0,-0.78,5.92,8.68,4.44,-8.28,2.91,27.19,80.0-90.0
80.0,1583.0,-1.44,1.01,8.48,2.86,10.23,0.08,27.22,80.0-90.0
80.0,0.0,3.88,-6.32,13.11,-9.39,-9.48,-0.53,27.19,80.0-90.0
80.0,2927.0,-4.4,-3.89,6.51,-5.79,0.59,-0.82,27.19,80.0-90.0
80.0,587.0,3.16,4.17,12.31,3.63,-8.03,1.83,27.2,80.0-90.0
80.0,773.0,-4.25,0.04,6.52,-0.25,3.94,-1.59,27.2,80.0-90.0
80.0,0.0,4.98,-6.86,13.74,-8.26,-2.72,-2.72,27.21,80.0-90.0
80.0,2926.0,-3.16,-2.56,6.34,-5.19,-6.26,-0.93,27.2,80.0-90.0
80.0,923.0,5.11,3.05,13.98,3.84,-1.92,0.69,27.19,80.0-90.0
80.0,1145.0,-4.41,-1.56,6.66,-4.58,-4.62,-0.92,27.2,80.0-90.0
80.0,2925.0,2.98,-6.66,12.8,-7.56,3.07,-1.43,27.2,80.0-90.0
80.0,2926.0,-0.16,-1.41,7.97,-3.44,-9.3,1.14,27.21,80.0-90.0
80.0,2065.0,3.77,2.05,13.17,4.54,6.31,0.69,27.2,80.0-90.0
80.0,598.0,-1.74,-3.28,8.51,-7.33,-10.9,-0.93,27.2,80.0-90.0
80.0,2925.0,0.08,-5.73,10.49,-6.38,6.19,-2.4,27.2,80.0-90.0
80.0,2925.0,3.22,-0.95,11.09,-0.55,-7.7,0.26,27.2,80.0-90.0
80.0,1585.0,1.43,1.29,10.04,3.95,9.54,-1.33,27.18,80.0-90.0
80.0,0.0,1.04,-5.34,11.15,-8.43,-9.65,-1.56,27.2,80.0-90.0
80.0,2928.0,-3.8,-4.57,7.71,-6.03,3.46,-1.45,27.19,80.0-90.0
80.0,1639.0,5.05,0.65,13.06,2.27,-2.59,1.53,27.19,80.0-90.0
80.0,1664.0,-2.61,0.72,8.08,1.35,7.53,-0.24,27.19,80.0-90.0
80.0,0.0,4.92,-6.4,13.66,-9.89,-9.67,-0.84,27.18,80.0-90.0
80.0,2926.0,-4.35,-3.46,6.02,-5.82,-1.02,-0.69,27.19,80.0-90.0
80.0,546.0,2.67,2.29,12.68,6.46,6.28,0.93,27.19,80.0-90.0
80.0,693.0,-5.43,-0.54,6.54,-0.98,3.23,-1.68,27.18,80.0-90.0
80.0,0.0,5.31,-7.0,14.47,-9.13,-4.05,-2.62,27.19,80.0-90.0
80.0,2925.0,-2.32,-2.25,6.12,-4.19,-6.78,-0.76,27.19,80.0-90.0
80.0,67.0,0.22,4.23,10.2,9.15,12.38,1.08,27.18,80.0-90.0
80.0,1363.0,-4.39,-1.76,6.83,-4.77,-5.03,-0.9,27.2,80.0-90.0
80.0,0.0,2.62,-6.65,12.9,-7.62,3.1,-1.43,27.2,80.0-90.0
80.0,2925.0,1.02,-1.31,8.58,-2.9,-9.94,1.42,27.19,80.0-90.0
80.0,0.0,3.41,2.16,12.89,4.24,5.73,0.69,27.19,80.0-90.0
80.0,930.0,-1.16,-3.59,9.37,-8.06,-11.53,-0.76,27.19,80.0-90.0
80.0,2925.0,-0.42,-5.48,9.26,-5.86,7.21,-2.21,27.19,80.0-90.0
80.0,2927.0,3.34,-0.66,11.36,-0.43,-7.45,0.35,27.18,80.0-90.0
80.0,2326.0,0.37,1.24,9.92,3.64,9.33,-1.39,27.19,80.0-90.0
80.0,504.0,2.37,-5.74,11.82,-9.59,-12.08,-1.86,27.21,80.0-90.0
80.0,2926.0,-3.95,-4.55,7.45,-5.82,3.44,-1.66,27.18,80.0-90.0
80.0,2925.0,3.99,1.09,13.14,3.72,0.33,1.4,27.19,80.0-90.0
80.0,2064.0,-2.4,0.2,7.84,0.74,7.0,-0.47,27.19,80.0-90.0
80.0,256.0,4.84,-6.58,13.49,-9.42,-7.64,-0.95,27.21,80.0-90.0
80.0,2923.0,-4.62,-2.98,5.72,-4.84,-1.02,-0.23,27.19,80.0-90.0
80.0,2918.0,2.81,2.38,12.6,6.92,7.8,1.22,27.2,80.0-90.0
80.0,944.0,-5.54,-0.61,6.15,-2.0,1.14,-1.31,27.19,80.0-90.0
80.0,0.0,4.78,-6.91,14.04,-8.05,-0.4,-2.44,27.19,80.0-90.0
80.0,2926.0,-1.68,-2.09,6.72,-4.32,-8.02,-0.58,27.19,80.0-90.0
80.0,1831.0,-0.77,4.52,9.42,9.39,13.27,0.78,27.19,80.0-90.0
80.0,1443.0,-3.73,-2.08,7.49,-5.71,-7.45,-1.13,27.19,80.0-90.0
80.0,0.0,1.82,-6.5,11.82,-7.5,4.97,-1.92,27.19,80.0-90.0
80.0,2925.0,1.33,-1.21,9.16,-2.0,-8.77,1.19,27.17,80.0-90.0
80.0,355.0,-2.58,6.04,6.74,9.78,12.58,1.97,27.2,80.0-90.0
80.0,821.0,0.26,-4.4,10.05,-9.19,-13.36,-0.7,27.19,80.0-90.0
80.0,0.0,-1.87,-5.34,8.59,-5.82,6.63,-1.8,27.17,80.0-90.0
80.0,2926.0,3.23,-0.09,11.91,1.26,-5.61,0.81,27.2,80.0-90.0
80.0,687.0,-4.07,6.73,5.89,8.49,5.81,1.4,27.19,80.0-90.0
80.0,917.0,3.63,-6.08,12.52,-10.18,-13.24,-1.6,27.18,80.0-90.0
80.0,2156.0,-4.33,-4.11,6.68,-4.99,4.11,-1.66,27.19,80.0-90.0
80.0,2925.0,3.58,1.65,13.5,4.89,1.47,1.16,27.2,80.0-90.0
80.0,1661.0,-3.33,6.9,6.18,6.25,-1.53,2.41,27.19,80.0-90.0
80.0,739.0,5.66,-6.69,14.29,-9.8,-7.19,-1.3,27.21,80.0-90.0
80.0,2923.0,-3.83,-2.71,5.84,-4.66,-2.4,-0.21,27.22,80.0-90.0
80.0,2925.0,1.79,2.9,12.26,7.11,8.34,1.37,27.19,80.0-90.0
80.0,2759.0,-0.9,5.6,8.73,4.31,-7.06,2.26,27.19,80.0-90.0
80.0,623.0,4.68,-6.7,13.68,-8.24,-0.59,-2.11,27.19,80.0-90.0
80.0,2925.0,-1.82,-2.13,6.88,-3.84,-7.48,-0.31,27.19,80.0-90.0
80.0,2480.0,-0.14,4.24,9.76,9.0,12.37,0.93,27.19,80.0-90.0
80.0,1003.0,1.05,4.63,10.62,4.39,-6.71,1.85,27.19,80.0-90.0
80.0,0.0,1.86,-6.61,12.31,-7.01,4.37,-2.03,27.21,80.0-90.0
80.0,2926.0,0.97,-1.1,9.16,-2.23,-9.56,1.04,27.22,80.0-90.0
80.0,2429.0,-2.23,6.1,6.94,9.97,12.84,1.71,27.19,80.0-90.0
80.0,624.0,3.82,3.66,12.86,3.58,-4.81,1.77,27.21,80.0-90.0
80.0,0.0,-1.04,-5.31,9.18,-5.88,6.98,-1.83,27.2,80.0-90.0
80.0,2923.0,2.77,-0.5,11.39,-0.02,-6.89,0.84,27.2,80.0-90.0
80.0,352.0,-3.8,6.72,5.77,8.69,7.71,1.4,27.19,80.0-90.0
80.0,954.0,4.86,2.88,13.49,4.22,0.54,0.47,27.19,80.0-90.0
80.0,0.0,-3.93,-4.5,7.24,-5.28,5.0,-1.92,27.19,80.0-90.0
80.0,2925.0,3.2,0.96,12.69,3.58,-0.5,0.92,27.18,80.0-90.0
80.0,410.0,-3.97,6.9,5.75,7.73,2.6,2.15,27.21,80.0-90.0
80.0,1212.0,3.76,2.13,13.04,4.33,6.11,0.49,27.19,80.0-90.0
80.0,0.0,-4.53,-3.34,5.87,-4.8,1.32,-0.58,27.17,80.0-90.0
80.0,2924.0,2.34,2.27,12.63,6.92,7.47,1.4,27.2,80.0-90.0
80.0,798.0,-2.17,6.66,7.06,6.22,-2.59,2.29,27.2,80.0-90.0
80.0,1488.0,1.84,1.35,11.65,3.28,7.96,-0.61,27.19,80.0-90.0
80.0,1968.0,-3.67,-2.38,6.28,-4.52,-4.49,-0.66,27.19,80.0-90.0
80.0,2923.0,1.78,3.36,11.8,7.87,9.73,0.81,27.21,80.0-90.0
80.0,1347.0,-0.65,5.53,8.88,4.65,-6.92,1.92,27.19,80.0-90.0
80.0,665.0,-2.14,0.97,8.72,2.38,8.48,-0.92,27.19,80.0-90.0
80.0,2926.0,-1.2,-1.69,7.69,-3.41,-8.2,0.46,27.19,80.0-90.0
80.0,2923.0,-1.08,4.95,8.62,9.47,13.63,1.59,27.22,80.0-90.0
80.0,1621.0,2.38,4.4,11.6,4.19,-6.51,2.24,27.19,80.0-90.0
80.0,0.0,-3.38,0.04,7.26,-0.26,3.79,-0.7,27.2,80.0-90.0
80.0,2926.0,2.49,-1.11,9.9,-2.35,-10.29,0.98,27.19,80.0-90.0
80.0,2925.0,-3.93,6.42,6.21,10.28,12.81,1.36,27.19,80.0-90.0
80.0,825.0,4.41,3.43,13.33,4.28,-2.97,0.96,27.2,80.0-90.0
80.0,0.0,-4.8,-1.04,6.5,-3.29,-2.01,-1.53,27.17,80.0-90.0
80.0,2925.0,3.91,0.25,12.4,1.51,-4.81,0.73,27.19,80.0-90.0
80.0,1776.0,-4.29,7.14,5.25,8.59,5.49,1.83,27.21,80.0-90.0
80.0,989.0,3.88,2.34,13.67,3.92,3.29,0.49,27.21,80.0-90.0
80.0,0.0,-2.44,-2.98,7.84,-7.5,-10.35,-0.7,27.22,80.0-90.0
80.0,2927.0,3.86,1.58,13.53,5.05,2.97,1.46,27.2,80.0-90.0
80.0,1035.0,-3.36,6.46,6.89,6.08,-2.37,2.47,27.2,80.0-90.0
80.0,1514.0,1.72,1.45,11.34,4.16,8.87,-0.27,27.19,80.0-90.0
80.0,0.0,1.64,-4.98,10.83,-9.24,-13.02,-1.24,27.2,80.0-90.0
80.0,2926.0,0.66,3.44,10.87,8.52,11.79,0.89,27.19,80.0-90.0
80.0,1386.0,-0.28,5.43,9.3,4.88,-6.39,1.94,27.19,80.0-90.0
80.0,1459.0,-1.87,0.78,8.46,2.05,9.04,-1.08,27.19,80.0-90.0
80.0,362.0,4.24,-6.35,13.42,-9.86,-10.26,-1.5,27.17,80.0-90.0
80.0,2926.0,-2.03,5.55,7.8,10.23,14.17,1.37,27.2,80.0-90.0
80.0,1584.0,3.1,4.09,12.32,3.52,-6.52,1.97,27.19,80.0-90.0
80.0,657.0,-3.59,-0.64,6.58,-1.88,2.28,-0.9,27.19,80.0-90.0
80.0,2926.0,4.77,-6.92,14.41,-8.95,-3.91,-1.66,27.19,80.0-90.0
80.0,2928.0,-4.23,6.63,5.45,9.79,10.55,1.66,27.19,80.0-90.0
80.0,1599.0,4.59,2.58,14.22,3.34,-0.62,0.76,27.2,80.0-90.0
80.0,0.0,-4.22,-1.75,6.8,-4.77,-5.68,-1.25,27.18,80.0-90.0
80.0,2925.0,2.66,-6.17,12.35,-6.61,4.2,-2.2,27.19,80.0-90.0
80.0,2190.0,-4.21,7.01,5.51,8.02,2.49,2.03,27.18,80.0-90.0
80.0,1205.0,2.77,2.05,12.9,3.86,6.4,0.17,27.18,80.0-90.0
80.0,0.0,-1.21,-3.62,9.0,-7.86,-11.24,-0.87,27.18,80.0-90.0
80.0,2925.0,-0.63,-5.42,9.79,-6.17,5.03,-1.72,27.21,80.0-90.0
80.0,1678.0,-2.03,6.4,7.51,5.66,-3.49,2.46,27.19,80.0-90.0
80.0,590.0,-0.3,1.18,10.07,3.21,11.04,-0.79,27.19,80.0-90.0
80.0,0.0,2.93,-5.65,11.89,-10.14,-13.83,-1.37,27.19,80.0-90.0
80.0,2925.0,-4.02,-4.52,7.12,-5.68,3.43,-1.75,27.2,80.0-90.0
80.0,875.0,1.61,4.65,10.53,3.78,-6.89,1.83,27.19,80.0-90.0
80.0,1200.0,-3.0,-0.03,7.71,0.86,7.07,-1.17,27.2,80.0-90.0
80.0,0.0,5.13,-6.84,14.02,-9.82,-8.25,-1.54,27.19,80.0-90.0
80.0,2924.0,-4.44,-2.72,5.51,-3.8,-0.53,-0.49,27.19,80.0-90.0
80.0,1315.0,3.88,3.61,13.12,4.15,-5.0,1.77,27.19,80.0-90.0
80.0,1074.0,-4.94,-0.24,6.34,-2.03,-0.1,-0.66,27.18,80.0-90.0
80.0,0.0,4.42,-6.56,13.59,-8.03,-0.57,-1.71,27.19,80.0-90.0
80.0,2926.0,-1.79,-2.21,6.99,-4.17,-7.52,-0.05,27.2,80.0-90.0
80.0,1581.0,4.46,2.86,13.84,4.02,1.18,0.61,27.19,80.0-90.0
80.0,1333.0,-3.35,-2.27,7.65,-5.99,-7.42,-1.34,27.21,80.0-90.0
80.0,2925.0,2.01,-6.22,11.59,-6.93,4.42,-2.47,27.2,80.0-90.0
80.0,2926.0,0.89,-1.15,9.08,-2.49,-9.48,0.37,27.2,80.0-90.0
80.0,2240.0,2.62,1.81,12.64,3.76,7.55,-0.21,27.18,80.0-90.0
80.0,0.0,-0.08,-4.38,9.94,-9.11,-12.92,-0.92,27.19,80.0-90.0
80.0,2926.0,-1.04,-5.33,8.6,-5.51,6.93,-1.65,27.19,80.0-90.0
80.0,2926.0,3.0,-0.01,11.67,0.99,-6.8,1.4,27.19,80.0-90.0
80.0,1398.0,-0.7,0.96,9.88,3.43,9.54,-0.49,27.19,80.0-90.0
80.0,0.0,3.56,-6.13,12.61,-10.69,-13.73,-1.21,27.19,80.0-90.0
80.0,2926.0,-4.27,-3.75,6.21,-3.96,4.81,-1.42,27.2,80.0-90.0
80.0,2303.0,3.67,1.53,13.26,4.28,1.17,0.87,27.2,80.0-90.0
80.0,1701.0,-3.56,0.45,7.63,0.44,5.53,-1.24,27.18,80.0-90.0
80.0,0.0,5.08,-6.43,13.78,-9.15,-6.02,-1.74,27.19,80.0-90.0
80.0,2926.0,-4.52,-2.83,6.11,-5.04,-3.67,-0.63,27.19,80.0-90.0
80.0,1683.0,2.88,2.57,12.08,6.07,6.75,1.34,27.2,80.0-90.0
80.0,1067.0,-4.08,-1.21,7.04,-3.56,-1.23,-1.04,27.19,80.0-90.0
80.0,0.0,4.09,-6.84,13.48,-8.18,0.1,-1.83,27.22,80.0-90.0
80.0,2926.0,-2.11,-1.91,7.07,-3.71,-8.0,0.4,27.22,80.0-90.0
80.0,583.0,-0.21,4.32,9.22,9.24,13.95,1.05,27.19,80.0-90.0
80.0,1758.0,-3.02,-2.68,7.74,-6.41,-8.11,-1.08,27.2,80.0-90.0
80.0,0.0,1.46,-6.11,11.32,-5.9,5.35,-2.2,27.21,80.0-90.0
80.0,2925.0,1.39,-0.98,9.59,-2.19,-10.34,0.5,27.19,80.0-90.0
80.0,0.0,-3.2,6.11,6.76,10.05,13.1,1.34,27.19,80.0-90.0
80.0,1706.0,0.25,-4.16,9.91,-8.75,-12.72,-1.01,27.2,80.0-90.0
80.0,1803.0,-1.44,-5.12,8.53,-5.44,6.35,-1.74,27.2,80.0-90.0
80.0,2919.0,3.53,-0.02,11.82,0.12,-7.12,1.16,27.21,80.0-90.0
80.0,1322.0,-4.6,6.78,5.58,8.72,7.67,1.92,27.19,80.0-90.0
80.0,435.0,2.82,-5.79,11.9,-9.91,-11.64,-1.28,27.19,80.0-90.0
80.0,2925.0,-3.98,-4.17,6.74,-5.06,4.16,-1.53,27.19,80.0-90.0
80.0,2927.0,3.96,1.16,13.17,3.92,-0.11,0.89,27.19,80.0-90.0
80.0,1973.0,-4.07,6.83,5.63,7.35,1.29,1.91,27.19,80.0-90.0
80.0,0.0,4.82,-6.52,13.41,-8.96,-6.57,-1.77,27.21,80.0-90.0
80.0,2928.0,-4.39,-2.94,5.88,-4.09,-1.11,-0.67,27.18,80.0-90.0
80.0,2925.0,2.7,2.41,12.4,6.72,7.3,1.25,27.19,80.0-90.0
80.0,1054.0,-2.05,5.97,8.03,5.61,-3.53,2.56,27.18,80.0-90.0
80.0,0.0,4.05,-6.88,13.98,-8.44,-0.74,-1.57,27.19,80.0-90.0
80.0,2925.0,-1.77,-1.91,6.96,-3.91,-7.44,0.34,27.2,80.0-90.0
80.0,2615.0,-0.22,4.42,9.75,9.13,13.07,1.33,27.18,80.0-90.0
80.0,1046.0,1.5,4.75,10.57,4.02,-6.74,1.95,27.19,80.0-90.0
80.0,0.0,2.15,-6.24,11.69,-6.8,4.65,-2.21,27.18,80.0-90.0
80.0,2923.0,1.37,-1.11,9.3,-2.55,-10.57,0.47,27.21,80.0-90.0
80.0,1369.0,-3.35,6.06,6.5,9.99,12.57,1.25,27.19,80.0-90.0
80.0,1307.0,4.31,3.35,13.15,3.73,-3.44,1.33,27.21,80.0-90.0
80.0,0.0,-1.94,-5.17,8.66,-5.44,6.64,-1.83,27.17,80.0-90.0
80.0,2927.0,4.17,-0.04,12.25,1.09,-6.71,1.25,27.21,80.0-90.0
80.0,432.0,-4.77,6.94,5.12,9.07,7.21,2.08,27.19,80.0-90.0
80.0,713.0,4.03,2.62,13.46,4.71,4.72,0.69,27.19,80.0-90.0
80.0,422.0,-4.32,-3.7,6.33,-4.87,1.76,-1.05,27.19,80.0-90.0
80.0,2925.0,3.63,1.82,13.31,5.06,2.08,1.19,27.21,80.0-90.0
80.0,1472.0,-3.29,6.73,6.46,6.5,-1.63,2.14,27.2,80.0-90.0
80.0,1061.0,1.29,1.57,11.4,3.72,9.64,-0.61,27.19,80.0-90.0
80.0,2924.0,-3.42,-2.47,6.0,-4.51,-4.69,-0.64,27.19,80.0-90.0
80.0,2925.0,0.76,3.63,11.13,8.6,11.39,0.95,27.19,80.0-90.0
80.0,1923.0,-0.58,5.31,9.07,4.34,-5.79,2.18,27.19,80.0-90.0
80.0,0.0,-2.22,0.55,8.4,1.96,9.94,-0.9,27.18,80.0-90.0
80.0,2925.0,-0.27,-1.48,8.2,-3.12,-10.58,0.75,27.19,80.0-90.0
80.0,2926.0,-1.13,5.26,8.18,9.42,11.7,1.56,27.21,80.0-90.0
80.0,702.0,2.93,3.76,12.36,3.57,-5.79,1.88,27.19,80.0-90.0
80.0,0.0,-4.04,-0.41,6.69,-1.47,1.87,-1.07,27.19,80.0-90.0
80.0,2925.0,3.03,-0.6,11.22,-0.8,-10.58,0.9,27.2,80.0-90.0
80.0,2067.0,-4.25,6.6,5.61,8.98,9.15,1.43,27.2,80.0-90.0
80.0,1534.0,4.33,3.14,13.67,4.44,0.45,0.81,27.19,80.0-90.0
80.0,0.0,-3.67,-1.91,7.37,-5.57,-6.23,-0.98,27.19,80.0-90.0
80.0,2926.0,4.44,0.9,13.32,2.34,-3.58,1.14,27.21,80.0-90.0
80.0,656.0,-4.44,6.89,5.84,7.38,2.11,2.18,27.19,80.0-90.0
80.0,993.0,3.73,2.02,12.74,3.67,5.56,0.26,27.19,80.0-90.0
80.0,0.0,-1.7,-3.68,8.94,-8.17,-11.36,-1.05,27.19,80.0-90.0
80.0,2927.0,2.28,2.32,12.96,6.85,7.47,0.96,27.2,80.0-90.0
80.0,896.0,-2.19,6.37,7.3,5.76,-3.53,1.94,27.21,80.0-90.0
80.0,951.0,0.94,1.18,10.62,3.15,8.93,-0.76,27.2,80.0-90.0
80.0,292.0,1.73,-5.56,11.53,-9.89,-13.19,-1.28,27.18,80.0-90.0
80.0,2927.0,0.97,3.93,10.77,8.89,11.48,1.22,27.2,80.0-90.0
80.0,1077.0,0.07,4.91,10.25,3.99,-7.23,2.26,27.17,80.0-90.0
80.0,1565.0,-2.57,0.75,8.1,1.95,8.12,-0.76,27.2,80.0-90.0
80.0,2926.0,4.82,-6.38,13.73,-10.05,-10.93,-1.11,27.2,80.0-90.0
80.0,2926.0,-1.14,5.55,7.73,9.78,13.1,1.46,27.18,80.0-90.0
80.0,2279.0,2.96,4.0,11.79,3.73,-5.26,1.75,27.18,80.0-90.0
80.0,511.0,-4.64,-0.36,6.55,-0.89,3.85,-1.34,27.19,80.0-90.0
80.0,2926.0,2.72,-1.03,11.0,-1.23,-8.87,0.72,27.19,80.0-90.0
80.0,2925.0,-4.13,6.47,5.36,9.76,11.95,1.28,27.17,80.0-90.0
80.0,1122.0,4.11,3.16,13.84,4.3,-1.17,0.92,27.17,80.0-90.0
80.0,0.0,-3.78,-1.5,7.03,-4.72,-4.77,-0.9,27.19,80.0-90.0
80.0,2925.0,4.06,0.64,13.1,2.15,-3.78,1.22,27.19,80.0-90.0
80.0,2352.0,-4.28,7.02,5.38,8.31,4.49,2.21,27.18,80.0-90.0
80.0,882.0,3.55,2.32,12.93,4.47,5.23,0.58,27.17,80.0-90.0
80.0,0.0,-1.45,-3.74,8.48,-8.08,-10.66,-0.96,27.19,80.0-90.0
80.0,2926.0,3.68,1.72,13.22,5.11,3.26,1.22,27.18,80.0-90.0
80.0,1791.0,-3.63,6.19,7.32,5.99,-2.43,2.08,27.18,80.0-90.0
80.0,1373.0,1.6,1.39,11.45,3.47,8.19,-0.72,27.18,80.0-90.0
80.0,0.0,2.01,-5.14,11.29,-9.82,-13.83,-1.37,27.16,80.0-90.0
