Speed,Voice,Acceleration X,Acceleration Y,Acceleration Z,Gyro X,Gyro Y,Gyro Z,Temperature,Speed_Range
90.0,1008.0,2.74,7.58,11.78,16.55,-30.13,14.68,28.43,90.0-100.0
90.0,1437.0,-4.82,-3.54,4.32,-8.38,16.04,-8.32,28.42,90.0-100.0
90.0,1377.0,-3.69,-6.92,9.92,-17.48,25.43,-12.51,28.42,90.0-100.0
90.0,0.0,2.98,6.88,10.68,15.41,-26.59,14.19,28.43,90.0-100.0
90.0,1337.0,-4.68,-4.18,4.24,-10.53,18.24,-8.41,28.41,90.0-100.0
90.0,304.0,-3.73,-7.06,9.92,-17.06,25.4,-12.42,28.43,90.0-100.0
90.0,1040.0,4.81,3.07,14.45,10.4,-16.78,8.29,28.39,90.0-100.0
90.0,1132.0,-6.02,-2.29,2.84,-8.03,19.45,-7.75,28.43,90.0-100.0
90.0,1455.0,-1.87,-7.96,8.01,-16.36,32.84,-17.04,28.41,90.0-100.0
90.0,2139.0,3.83,-1.02,15.88,2.02,-13.97,0.2,28.43,90.0-100.0
90.0,802.0,-0.4,8.54,13.88,15.3,-35.1,15.69,28.42,90.0-100.0
90.0,1203.0,-0.65,-7.21,6.54,-15.97,31.49,-14.71,28.42,90.0-100.0
90.0,590.0,-2.77,-5.24,11.85,-8.63,9.8,-8.47,28.42,90.0-100.0
90.0,1462.0,5.35,2.59,16.56,8.13,-27.32,9.7,28.39,90.0-100.0
90.0,0.0,-1.25,8.27,10.74,13.24,-28.97,15.46,28.4,90.0-100.0
90.0,2842.0,0.72,-7.31,8.34,-12.64,31.04,-13.21,28.41,90.0-100.0
90.0,657.0,-1.24,-3.84,13.52,-7.16,-5.21,-5.49,28.4,90.0-100.0
90.0,1916.0,4.07,3.2,15.29,9.09,-24.16,7.78,28.41,90.0-100.0
90.0,0.0,-0.97,8.01,10.25,13.0,-24.93,12.41,28.41,90.0-100.0
90.0,2131.0,0.68,-7.06,8.53,-11.39,29.32,-14.43,28.4,90.0-100.0
90.0,1450.0,-2.21,-4.11,12.8,-7.67,-2.42,-7.42,28.43,90.0-100.0
90.0,2531.0,4.61,1.54,16.1,6.11,-23.14,6.26,28.43,90.0-100.0
90.0,299.0,-1.36,7.87,10.19,13.1,-25.34,14.22,28.42,90.0-100.0
90.0,1863.0,0.95,-6.49,7.96,-11.82,27.14,-11.14,28.41,90.0-100.0
90.0,2303.0,-3.88,-5.22,10.95,-9.3,8.55,-8.38,28.42,90.0-100.0
90.0,1609.0,5.06,-1.02,16.82,0.73,-21.02,2.88,28.4,90.0-100.0
90.0,1128.0,-1.16,6.75,11.14,12.69,-24.21,12.16,28.42,90.0-100.0
90.0,754.0,-0.85,-4.69,6.23,-10.7,22.44,-9.6,28.41,90.0-100.0
90.0,1712.0,-3.0,-6.28,9.38,-9.97,23.03,-13.11,28.41,90.0-100.0
90.0,647.0,2.27,-3.36,15.06,-5.88,-14.89,-4.17,28.41,90.0-100.0
90.0,2366.0,1.93,3.45,13.96,9.36,-21.1,7.69,28.41,90.0-100.0
90.0,245.0,-3.97,-1.37,4.33,-6.43,17.02,-4.2,28.41,90.0-100.0
90.0,2677.0,0.23,-6.21,8.13,-10.56,28.46,-11.47,28.41,90.0-100.0
90.0,656.0,-3.09,-5.12,11.35,-9.92,4.36,-8.06,28.42,90.0-100.0
90.0,2247.0,4.77,-1.21,16.75,0.51,-20.38,2.69,28.42,90.0-100.0
90.0,764.0,-1.5,2.37,4.24,2.18,10.15,3.1,28.42,90.0-100.0
90.0,1097.0,-1.35,-3.83,5.72,-9.3,21.96,-7.89,28.4,90.0-100.0
90.0,1984.0,-2.38,-6.14,9.12,-10.12,24.97,-12.85,28.41,90.0-100.0
90.0,1586.0,0.7,-4.15,13.75,-8.11,-10.32,-6.33,28.43,90.0-100.0
90.0,2363.0,0.98,5.78,8.52,9.49,-6.89,8.68,28.41,90.0-100.0
90.0,0.0,-3.48,0.23,4.14,-3.0,14.09,-1.56,28.39,90.0-100.0
90.0,2595.0,0.18,-5.18,6.8,-10.0,26.66,-10.27,28.4,90.0-100.0
90.0,432.0,-3.74,-5.89,10.08,-10.58,16.24,-10.68,28.41,90.0-100.0
90.0,2928.0,-1.18,7.82,9.94,13.38,-21.22,13.72,28.42,90.0-100.0
90.0,622.0,0.73,4.31,6.54,6.42,0.5,7.52,28.4,90.0-100.0
90.0,2319.0,-3.53,-1.44,4.5,-5.91,17.68,-3.49,28.42,90.0-100.0
90.0,2448.0,-0.05,-5.74,7.8,-9.88,28.66,-11.76,28.41,90.0-100.0
90.0,1647.0,0.51,4.78,12.36,11.55,-20.55,9.06,28.44,90.0-100.0
90.0,2928.0,-0.45,7.51,9.9,12.51,-18.06,11.73,28.42,90.0-100.0
90.0,496.0,-0.38,3.06,5.13,3.81,6.42,3.66,28.4,90.0-100.0
90.0,2640.0,-2.52,-2.73,5.15,-8.0,20.12,-6.35,28.43,90.0-100.0
90.0,776.0,4.42,-1.38,16.61,0.32,-19.34,1.45,28.42,90.0-100.0
90.0,2926.0,-0.72,6.13,11.13,12.72,-21.32,11.51,28.38,90.0-100.0
90.0,1282.0,0.39,6.81,9.59,10.95,-13.91,12.02,28.39,90.0-100.0
90.0,2326.0,-1.85,1.91,4.53,0.93,10.2,2.66,28.42,90.0-100.0
90.0,2475.0,-0.44,-4.75,12.82,-9.44,-5.39,-6.77,28.43,90.0-100.0
90.0,1744.0,4.08,0.16,16.25,3.79,-19.97,3.6,28.42,90.0-100.0
90.0,2435.0,-1.45,7.09,10.32,13.7,-22.12,11.75,28.4,90.0-100.0
90.0,0.0,0.89,5.99,8.83,9.76,-8.98,9.38,28.39,90.0-100.0
90.0,2188.0,-2.81,-6.17,9.45,-10.56,22.07,-12.73,28.4,90.0-100.0
90.0,1023.0,1.36,-4.2,14.07,-7.91,-11.19,-5.45,28.4,90.0-100.0
90.0,2926.0,3.04,1.72,15.33,6.8,-20.04,5.84,28.43,90.0-100.0
90.0,1280.0,-1.51,7.58,9.9,13.59,-21.86,13.17,28.4,90.0-100.0
90.0,1873.0,-0.11,-4.78,6.76,-9.79,26.22,-9.38,28.4,90.0-100.0
90.0,2242.0,-3.36,-6.05,9.93,-10.88,17.26,-11.08,28.41,90.0-100.0
90.0,781.0,2.81,-3.64,15.18,-6.08,-15.05,-3.08,28.41,90.0-100.0
90.0,2307.0,1.92,3.16,14.06,9.17,-20.21,7.39,28.42,90.0-100.0
90.0,1.0,-3.72,-0.73,4.19,-4.7,17.01,-3.14,28.41,90.0-100.0
90.0,2415.0,0.11,-5.43,7.45,-10.21,27.46,-11.58,28.41,90.0-100.0
90.0,1859.0,-3.23,-5.74,10.51,-10.78,11.38,-11.0,28.41,90.0-100.0
90.0,2925.0,3.99,-2.89,16.1,-3.73,-17.88,-1.54,28.42,90.0-100.0
90.0,1202.0,0.36,3.86,6.12,5.69,3.1,6.07,28.4,90.0-100.0
90.0,876.0,-3.32,-1.86,4.61,-6.47,18.41,-4.04,28.42,90.0-100.0
90.0,1200.0,-0.12,-5.83,7.9,-10.14,28.24,-11.28,28.44,90.0-100.0
90.0,495.0,-2.93,-5.29,11.27,-10.49,5.56,-9.12,28.42,90.0-100.0
90.0,2926.0,-0.26,7.59,9.85,12.46,-17.77,12.62,28.42,90.0-100.0
90.0,0.0,-0.58,3.13,5.24,3.76,6.39,4.24,28.42,90.0-100.0
90.0,2236.0,-2.6,-2.75,5.05,-8.0,20.41,-6.52,28.42,90.0-100.0
90.0,2246.0,-0.83,-6.1,8.5,-10.29,27.52,-12.79,28.41,90.0-100.0
90.0,1456.0,-0.49,5.91,11.28,12.71,-21.58,10.57,28.39,90.0-100.0
90.0,1376.0,0.29,6.97,9.54,11.53,-14.21,11.44,28.41,90.0-100.0
90.0,1123.0,-1.68,2.19,4.46,1.58,9.68,2.69,28.41,90.0-100.0
90.0,2515.0,-1.64,-3.66,5.59,-9.08,22.42,-7.26,28.4,90.0-100.0
90.0,486.0,4.26,-0.29,16.53,2.68,-20.85,3.66,28.42,90.0-100.0
90.0,2224.0,-1.13,6.84,10.5,13.35,-22.26,12.41,28.4,90.0-100.0
90.0,0.0,0.65,6.35,8.97,10.51,-9.74,10.6,28.41,90.0-100.0
90.0,989.0,-2.67,1.31,4.12,-0.77,12.29,0.49,28.42,90.0-100.0
90.0,1374.0,0.35,-4.19,13.75,-8.18,-8.84,-6.06,28.41,90.0-100.0
90.0,1535.0,3.35,1.17,15.8,5.55,-20.85,4.73,28.4,90.0-100.0
90.0,1362.0,-1.21,7.34,10.14,13.54,-22.41,12.33,28.42,90.0-100.0
90.0,90.0,0.88,5.45,8.16,8.91,-5.12,8.96,28.41,90.0-100.0
90.0,1951.0,-3.04,-6.11,9.54,-10.56,19.81,-11.73,28.41,90.0-100.0
90.0,784.0,2.16,-3.7,14.81,-6.61,-13.77,-3.6,28.4,90.0-100.0
90.0,1722.0,2.33,2.53,14.72,8.11,-20.64,7.23,28.42,90.0-100.0
90.0,533.0,-1.14,7.73,9.84,13.5,-21.64,13.35,28.42,90.0-100.0
90.0,1535.0,0.23,-5.38,7.25,-10.21,27.05,-10.57,28.4,90.0-100.0
90.0,2238.0,-3.61,-5.81,10.27,-10.58,14.4,-11.14,28.41,90.0-100.0
90.0,1467.0,3.43,-3.0,15.67,-4.61,-16.99,-2.44,28.4,90.0-100.0
90.0,1340.0,1.28,3.84,13.46,10.04,-20.93,8.03,28.39,90.0-100.0
90.0,0.0,-3.48,-1.32,4.32,-6.02,17.81,-4.21,28.41,90.0-100.0
90.0,1472.0,0.09,-5.92,7.87,-10.52,27.95,-11.81,28.41,90.0-100.0
90.0,1092.0,-3.15,-5.57,11.02,-10.64,7.62,-9.86,28.41,90.0-100.0
90.0,1853.0,4.18,-2.18,16.39,-1.93,-18.7,0.15,28.42,90.0-100.0
90.0,350.0,-0.35,3.38,5.41,4.6,5.76,5.23,28.42,90.0-100.0
90.0,755.0,-2.95,-2.3,4.75,-7.47,19.92,-5.31,28.42,90.0-100.0
90.0,1819.0,-0.54,-6.17,8.48,-10.5,27.7,-12.13,28.39,90.0-100.0
90.0,416.0,-2.04,-5.18,11.89,-10.17,1.37,-8.76,28.42,90.0-100.0
90.0,1890.0,0.54,6.95,9.67,11.44,-16.66,11.67,28.39,90.0-100.0
90.0,0.0,-1.44,2.51,4.58,2.67,9.97,2.73,28.39,90.0-100.0
90.0,1499.0,-2.07,-3.15,5.19,-8.44,22.24,-7.34,28.41,90.0-100.0
90.0,1584.0,4.12,-0.41,16.5,2.45,-19.49,2.49,28.39,90.0-100.0
90.0,1440.0,-1.13,6.5,10.94,12.83,-23.0,11.72,28.4,90.0-100.0
90.0,896.0,1.17,6.35,9.29,10.31,-12.44,11.18,28.39,90.0-100.0
90.0,327.0,-2.64,1.75,3.92,0.62,12.67,1.72,28.41,90.0-100.0
90.0,1585.0,0.03,-4.45,13.36,-8.57,-6.98,-6.0,28.4,90.0-100.0
90.0,709.0,3.51,0.91,15.98,5.11,-20.01,4.65,28.41,90.0-100.0
90.0,1870.0,-1.16,7.09,10.35,13.1,-23.55,12.39,28.42,90.0-100.0
90.0,0.0,1.01,5.79,8.53,9.67,-6.81,9.43,28.4,90.0-100.0
90.0,2129.0,-2.49,-6.4,9.41,-10.85,20.99,-12.5,28.41,90.0-100.0
90.0,1386.0,1.41,-3.76,14.46,-6.9,-11.56,-4.75,28.41,90.0-100.0
90.0,1229.0,2.57,2.13,15.16,7.32,-20.84,6.12,28.41,90.0-100.0
90.0,937.0,-0.85,7.29,10.13,12.89,-23.28,12.82,28.42,90.0-100.0
90.0,176.0,0.07,-5.32,7.3,-10.82,25.79,-10.33,28.4,90.0-100.0
90.0,2000.0,-2.96,-6.16,9.84,-10.81,16.69,-11.2,28.4,90.0-100.0
90.0,0.0,2.76,-3.09,15.33,-4.93,-14.7,-2.47,28.42,90.0-100.0
90.0,2073.0,1.44,3.46,13.98,9.36,-21.16,7.93,28.4,90.0-100.0
90.0,0.0,-3.86,-0.7,4.09,-5.21,17.39,-3.23,28.42,90.0-100.0
90.0,2470.0,0.29,-5.8,7.91,-10.78,27.03,-11.63,28.39,90.0-100.0
90.0,2042.0,-3.34,-5.69,10.54,-10.43,10.96,-10.71,28.42,90.0-100.0
90.0,645.0,3.82,-2.4,16.01,-2.84,-17.68,-1.25,28.41,90.0-100.0
90.0,1271.0,-0.22,3.96,5.83,5.96,4.8,5.71,28.41,90.0-100.0
90.0,0.0,-3.21,-1.86,4.62,-7.19,18.2,-4.68,28.41,90.0-100.0
90.0,1419.0,-0.02,-6.21,8.26,-10.78,27.7,-11.78,28.41,90.0-100.0
90.0,726.0,-2.91,-5.13,11.24,-9.94,5.78,-8.96,28.4,90.0-100.0
90.0,2384.0,0.16,7.35,9.61,12.39,-17.19,12.6,28.39,90.0-100.0
90.0,377.0,-1.07,3.46,4.86,4.25,8.02,4.5,28.43,90.0-100.0
90.0,619.0,-2.6,-2.79,5.2,-8.57,19.68,-6.26,28.4,90.0-100.0
90.0,2093.0,-0.46,-6.48,8.61,-10.93,26.85,-12.62,28.38,90.0-100.0
90.0,268.0,-0.42,5.58,11.67,11.85,-22.87,10.51,28.39,90.0-100.0
90.0,2529.0,0.54,6.94,9.47,11.82,-14.15,11.49,28.41,90.0-100.0
90.0,0.0,-1.85,2.62,4.21,2.34,10.34,2.82,28.4,90.0-100.0
90.0,2619.0,-1.76,-3.66,5.78,-9.4,21.19,-7.35,28.37,90.0-100.0
90.0,1203.0,4.09,-0.42,16.47,2.24,-20.13,2.96,28.4,90.0-100.0
90.0,2736.0,-0.8,6.33,10.87,12.93,-22.67,11.89,28.4,90.0-100.0
90.0,651.0,0.58,6.62,9.17,11.13,-10.75,11.08,28.4,90.0-100.0
90.0,971.0,-2.45,1.83,4.08,0.25,11.68,1.39,28.42,90.0-100.0
90.0,1906.0,-0.19,-4.16,13.12,-8.35,-6.26,-6.36,28.4,90.0-100.0
90.0,1074.0,3.62,0.53,16.15,4.19,-20.71,3.98,28.39,90.0-100.0
90.0,2655.0,-1.06,6.98,10.41,13.21,-22.8,12.08,28.4,90.0-100.0
90.0,0.0,0.75,6.11,8.56,10.0,-7.68,9.87,28.38,90.0-100.0
90.0,2248.0,-2.52,-6.23,9.29,-10.59,22.41,-12.13,28.38,90.0-100.0
90.0,1408.0,0.91,-3.92,13.88,-7.53,-9.91,-5.07,28.41,90.0-100.0
90.0,1927.0,3.06,1.33,15.59,5.88,-20.81,5.46,28.4,90.0-100.0
90.0,1638.0,-0.92,7.21,10.11,13.32,-22.68,12.88,28.39,90.0-100.0
90.0,1008.0,-0.09,-5.03,6.86,-10.49,24.88,-9.72,28.41,90.0-100.0
90.0,2305.0,-3.05,-6.1,9.68,-10.44,19.17,-11.54,28.4,90.0-100.0
90.0,0.0,1.87,-3.5,14.52,-6.22,-12.58,-4.12,28.39,90.0-100.0
90.0,2926.0,2.43,2.22,14.95,7.41,-20.87,6.27,28.39,90.0-100.0
90.0,1392.0,-3.73,0.08,4.14,-3.53,15.13,-1.92,28.4,90.0-100.0
90.0,1927.0,0.24,-5.39,7.33,-10.7,25.66,-10.71,28.38,90.0-100.0
90.0,2707.0,-3.15,-5.94,9.95,-10.43,16.23,-11.37,28.39,90.0-100.0
90.0,2224.0,2.56,-3.06,15.12,-5.06,-14.61,-2.88,28.39,90.0-100.0
90.0,1395.0,0.59,4.9,6.89,7.88,0.08,7.78,28.39,90.0-100.0
90.0,0.0,-3.77,-0.61,4.23,-4.87,16.55,-2.58,28.4,90.0-100.0
90.0,2382.0,0.37,-5.8,7.55,-10.95,26.56,-11.05,28.37,90.0-100.0
90.0,2426.0,-3.03,-5.85,10.42,-10.55,12.55,-10.7,28.35,90.0-100.0
90.0,2896.0,-0.32,7.32,9.91,12.66,-21.2,12.66,28.39,90.0-100.0
90.0,1174.0,0.29,4.31,6.3,6.86,2.97,6.38,28.39,90.0-100.0
90.0,1739.0,-3.84,-1.11,4.23,-5.68,18.06,-4.06,28.4,90.0-100.0
90.0,2432.0,0.13,-6.04,8.14,-11.02,26.69,-11.89,28.4,90.0-100.0
90.0,1198.0,0.43,4.35,13.01,10.51,-21.69,8.93,28.4,90.0-100.0
90.0,2927.0,0.21,7.28,10.08,12.1,-20.73,12.76,28.39,90.0-100.0
90.0,0.0,-0.25,3.84,5.59,5.63,5.53,5.68,28.39,90.0-100.0
90.0,2158.0,-3.49,-1.72,4.34,-6.69,19.77,-4.61,28.39,90.0-100.0
90.0,965.0,3.82,-1.78,16.32,-1.21,-17.97,0.12,28.38,90.0-100.0
90.0,1854.0,-0.05,4.94,12.32,11.21,-22.03,9.9,28.41,90.0-100.0
90.0,2377.0,0.44,7.13,9.87,11.84,-18.23,12.19,28.38,90.0-100.0
90.0,448.0,-0.91,3.39,4.99,4.51,8.05,4.26,28.37,90.0-100.0
90.0,2159.0,-2.13,-5.28,11.53,-10.06,3.27,-9.2,28.39,90.0-100.0
90.0,1342.0,3.84,-1.22,16.44,0.41,-18.55,0.9,28.39,90.0-100.0
90.0,2555.0,-0.52,5.49,11.81,11.7,-22.87,10.57,28.4,90.0-100.0
90.0,800.0,0.9,6.81,9.75,11.45,-16.55,12.07,28.38,90.0-100.0
90.0,2545.0,-0.66,-6.57,8.81,-11.21,26.12,-12.21,28.4,90.0-100.0
90.0,2192.0,-1.46,-4.92,12.05,-9.31,-0.36,-7.89,28.39,90.0-100.0
90.0,1642.0,3.85,-0.47,16.35,2.18,-18.82,2.33,28.39,90.0-100.0
90.0,1776.0,-0.73,6.06,11.29,12.13,-23.41,11.23,28.41,90.0-100.0
90.0,112.0,-1.96,-3.31,5.48,-9.13,21.46,-7.45,28.4,90.0-100.0
90.0,2694.0,-1.06,-6.61,9.05,-11.31,24.57,-12.66,28.41,90.0-100.0
90.0,715.0,-0.85,-4.44,12.69,-8.58,-3.09,-7.25,28.39,90.0-100.0
90.0,2203.0,3.59,0.25,16.25,3.53,-19.81,3.33,28.41,90.0-100.0
90.0,959.0,-2.95,2.15,3.89,1.32,13.48,1.71,28.39,90.0-100.0
90.0,2927.0,-1.29,-4.11,6.1,-10.05,22.41,-8.26,28.42,90.0-100.0
90.0,2687.0,-1.58,-6.71,9.26,-11.27,23.0,-12.18,28.38,90.0-100.0
90.0,2699.0,0.03,-4.03,13.37,-7.48,-6.77,-5.69,28.4,90.0-100.0
90.0,2927.0,1.34,5.99,8.67,10.43,-8.0,10.28,28.38,90.0-100.0
90.0,1095.0,-3.71,1.6,3.76,-0.07,14.59,0.38,28.4,90.0-100.0
90.0,2925.0,-0.51,-4.65,6.7,-10.63,23.28,-9.49,28.4,90.0-100.0
90.0,2038.0,-2.02,-6.61,9.48,-11.16,20.45,-12.31,28.39,90.0-100.0
90.0,2384.0,-0.66,6.87,10.51,12.39,-24.82,12.41,28.38,90.0-100.0
90.0,1708.0,1.3,5.51,8.01,9.58,-4.48,9.16,28.38,90.0-100.0
90.0,624.0,-4.21,0.95,3.56,-1.74,16.38,-0.78,28.38,90.0-100.0
90.0,2723.0,0.13,-5.2,7.1,-11.22,24.3,-9.99,28.37,90.0-100.0
90.0,329.0,2.18,2.39,14.97,7.27,-20.91,6.5,28.37,90.0-100.0
90.0,2927.0,-0.51,6.96,10.36,11.96,-24.68,12.86,28.4,90.0-100.0
90.0,0.0,1.0,5.04,7.27,8.81,-0.59,8.25,28.42,90.0-100.0
90.0,2129.0,-4.33,0.26,3.55,-3.07,17.59,-1.98,28.39,90.0-100.0
90.0,1520.0,2.38,-2.94,15.03,-4.22,-12.9,-3.01,28.4,90.0-100.0
90.0,765.0,1.31,3.29,14.12,9.0,-21.22,7.43,28.41,90.0-100.0
90.0,973.0,-0.08,7.06,10.25,12.17,-23.8,12.66,28.38,90.0-100.0
90.0,0.0,0.58,4.53,6.68,7.76,1.9,7.2,28.39,90.0-100.0
90.0,2928.0,-2.67,-6.1,10.31,-11.01,12.24,-10.85,28.4,90.0-100.0
90.0,1155.0,3.17,-2.44,15.67,-2.86,-14.79,-1.62,28.4,90.0-100.0
90.0,1456.0,0.61,4.18,13.31,10.11,-21.23,8.71,28.39,90.0-100.0
90.0,0.0,0.21,7.19,10.15,11.81,-22.47,12.79,28.41,90.0-100.0
90.0,1939.0,0.09,-6.01,8.3,-11.43,26.36,-11.78,28.4,90.0-100.0
90.0,1565.0,-2.57,-5.79,10.85,-10.82,8.38,-10.22,28.39,90.0-100.0
90.0,755.0,3.6,-2.01,16.09,-1.56,-16.62,-0.69,28.4,90.0-100.0
90.0,1470.0,0.02,4.71,12.6,10.8,-22.07,9.26,28.41,90.0-100.0
90.0,0.0,-3.42,-1.73,4.36,-6.64,19.52,-5.11,28.4,90.0-100.0
90.0,937.0,-0.02,-6.4,8.52,-11.25,26.33,-12.19,28.39,90.0-100.0
90.0,1136.0,-2.2,-5.38,11.29,-10.03,4.86,-9.25,28.38,90.0-100.0
90.0,597.0,3.93,-1.38,16.32,-0.01,-17.94,0.81,28.39,90.0-100.0
90.0,123.0,-1.23,3.45,4.89,4.83,8.89,4.71,28.42,90.0-100.0
90.0,560.0,-2.83,-2.38,4.81,-7.82,20.12,-5.87,28.41,90.0-100.0
90.0,2090.0,-0.4,-6.52,8.81,-11.51,25.84,-12.41,28.4,90.0-100.0
90.0,0.0,-1.87,-4.94,11.79,-9.45,1.75,-8.47,28.39,90.0-100.0
90.0,236.0,0.99,6.85,9.58,11.42,-16.11,11.8,28.39,90.0-100.0
90.0,0.0,-2.02,3.06,4.29,3.6,11.41,3.22,28.39,90.0-100.0
90.0,1616.0,-2.12,-3.16,5.34,-9.27,20.8,-7.16,28.38,90.0-100.0
90.0,2337.0,-0.74,-6.85,9.05,-11.6,24.96,-12.48,28.36,90.0-100.0
90.0,939.0,-0.78,5.86,11.49,11.59,-24.67,11.37,28.37,90.0-100.0
90.0,736.0,1.46,6.49,9.23,11.26,-12.89,11.54,28.39,90.0-100.0
90.0,0.0,-2.96,2.48,3.97,2.25,13.1,2.33,28.41,90.0-100.0
90.0,1796.0,-1.38,-3.88,5.98,-10.09,21.32,-8.09,28.36,90.0-100.0
90.0,367.0,3.49,0.52,16.12,3.89,-19.78,3.57,28.37,90.0-100.0
90.0,1585.0,-0.77,6.24,11.18,11.73,-25.84,11.78,28.4,90.0-100.0
90.0,0.0,1.66,6.16,8.67,10.9,-8.96,10.36,28.39,90.0-100.0
90.0,2781.0,-3.92,2.14,3.47,0.94,15.37,0.87,28.36,90.0-100.0
90.0,737.0,-0.16,-3.77,13.34,-6.75,-5.75,-5.65,28.39,90.0-100.0
90.0,1051.0,2.94,1.4,15.69,5.27,-20.45,4.84,28.4,90.0-100.0
90.0,1779.0,-0.57,6.42,10.81,11.36,-26.33,12.36,28.36,90.0-100.0
90.0,0.0,1.39,5.65,8.25,10.28,-4.89,9.78,28.39,90.0-100.0
90.0,1667.0,-1.61,-6.83,9.44,-11.33,20.03,-12.08,28.38,90.0-100.0
90.0,640.0,0.64,-3.21,14.1,-5.27,-8.31,-4.26,28.36,90.0-100.0
90.0,1691.0,2.12,2.29,15.05,6.94,-20.99,6.1,28.37,90.0-100.0
90.0,0.0,0.05,6.54,10.67,11.39,-26.48,12.57,28.39,90.0-100.0
90.0,1283.0,0.26,-5.61,7.83,-12.23,23.22,-10.71,28.37,90.0-100.0
90.0,1815.0,-2.0,-6.7,9.76,-11.1,16.52,-11.76,28.38,90.0-100.0
90.0,500.0,1.67,-2.61,14.75,-3.45,-10.73,-2.96,28.37,90.0-100.0
90.0,1723.0,1.35,3.26,14.52,8.31,-22.36,7.4,28.38,90.0-100.0
90.0,0.0,-4.45,0.28,3.16,-3.45,18.75,-2.43,28.38,90.0-100.0
90.0,2373.0,0.57,-6.15,8.44,-12.55,24.07,-11.32,28.38,90.0-100.0
90.0,1472.0,-2.32,-6.14,10.18,-10.61,12.89,-10.83,28.38,90.0-100.0
90.0,1345.0,2.48,-1.94,15.43,-2.16,-13.59,-1.48,28.39,90.0-100.0
90.0,1355.0,-0.63,4.55,6.22,8.04,5.97,6.59,28.39,90.0-100.0
90.0,757.0,-4.11,-0.76,3.62,-5.73,18.87,-4.0,28.37,90.0-100.0
90.0,2267.0,0.6,-6.66,8.92,-12.59,24.62,-12.07,28.37,90.0-100.0
90.0,241.0,-2.43,-5.7,10.72,-9.85,8.9,-9.98,28.38,90.0-100.0
90.0,1950.0,1.46,6.78,9.83,11.64,-21.2,12.5,28.38,90.0-100.0
90.0,541.0,-1.74,4.0,5.14,6.83,10.05,5.25,28.39,90.0-100.0
90.0,2066.0,-3.22,-1.86,4.32,-7.59,19.36,-5.43,28.38,90.0-100.0
90.0,1473.0,0.24,-6.94,9.29,-12.43,24.89,-12.53,28.38,90.0-100.0
90.0,2045.0,-0.44,5.15,12.58,10.4,-25.35,10.27,28.38,90.0-100.0
90.0,1048.0,1.99,6.65,9.64,11.48,-17.42,12.1,28.4,90.0-100.0
90.0,0.0,-2.94,3.45,4.27,4.97,13.19,3.77,28.38,90.0-100.0
90.0,2255.0,-2.31,-2.94,5.28,-9.53,19.97,-6.91,28.36,90.0-100.0
90.0,0.0,3.46,0.04,15.95,2.54,-17.94,2.46,28.38,90.0-100.0
90.0,1808.0,-0.7,5.81,11.8,10.87,-26.16,11.28,28.36,90.0-100.0
90.0,650.0,1.94,6.32,9.22,10.97,-12.89,11.14,28.37,90.0-100.0
90.0,2300.0,-3.64,2.52,3.54,2.57,15.25,1.8,28.37,90.0-100.0
90.0,2464.0,-0.77,-4.28,12.97,-7.47,-3.81,-6.59,28.37,90.0-100.0
90.0,2384.0,3.2,0.97,15.8,4.92,-19.48,4.14,28.37,90.0-100.0
90.0,2045.0,-0.79,6.38,10.99,11.56,-26.1,12.1,28.39,90.0-100.0
