Speed,Voice,Acceleration X,Acceleration Y,Acceleration Z,Gyro X,Gyro Y,Gyro Z,Temperature,Speed_Range
90.0,1341.0,0.7,-3.49,10.25,-4.89,1.5,-2.3,28.07,90.0-100.0
90.0,1677.0,-0.83,-0.35,9.36,-0.97,-0.37,-0.12,28.06,90.0-100.0
90.0,2453.0,1.29,3.06,9.66,4.22,0.86,2.06,28.05,90.0-100.0
90.0,0.0,0.58,2.42,10.48,3.57,-2.07,2.41,28.07,90.0-100.0
90.0,2112.0,-0.56,-3.03,9.9,-4.02,2.52,-0.92,28.08,90.0-100.0
90.0,1615.0,0.93,0.39,9.96,-0.65,-2.1,1.69,28.07,90.0-100.0
90.0,2927.0,1.23,3.2,9.48,4.21,0.94,2.85,28.08,90.0-100.0
90.0,557.0,0.66,2.63,10.33,3.6,-1.73,1.94,28.11,90.0-100.0
90.0,1965.0,0.32,-3.44,10.37,-4.06,2.19,-3.19,28.09,90.0-100.0
90.0,2381.0,-1.53,-0.66,8.62,-1.39,0.22,-1.71,28.07,90.0-100.0
90.0,2926.0,2.2,2.26,10.51,2.62,0.57,0.55,28.07,90.0-100.0
90.0,1516.0,-0.24,3.46,9.04,4.4,-1.67,2.4,28.07,90.0-100.0
90.0,0.0,1.41,-3.86,10.95,-5.67,-3.27,-2.58,28.07,90.0-100.0
90.0,2496.0,-2.1,-2.71,9.35,-3.22,3.7,-2.0,28.06,90.0-100.0
90.0,2005.0,-1.29,-0.55,8.75,-1.45,0.28,0.63,28.09,90.0-100.0
90.0,2923.0,1.1,2.29,10.48,4.57,1.99,3.22,28.06,90.0-100.0
90.0,1855.0,-1.05,0.23,9.04,0.15,0.98,0.53,28.07,90.0-100.0
90.0,0.0,-0.61,-2.64,10.28,-5.03,-3.91,-2.24,28.07,90.0-100.0
90.0,2423.0,0.58,-3.38,10.12,-4.03,2.07,-4.0,28.06,90.0-100.0
90.0,2027.0,0.27,2.85,9.71,3.72,0.08,1.6,28.07,90.0-100.0
90.0,2926.0,0.86,3.16,9.63,4.24,-1.11,1.89,28.07,90.0-100.0
90.0,1775.0,1.54,1.77,10.4,3.76,2.04,1.13,28.07,90.0-100.0
90.0,0.0,-0.9,0.04,9.29,-0.37,-1.24,0.08,28.07,90.0-100.0
90.0,1999.0,-2.67,-1.44,8.4,-1.61,2.69,-0.93,28.08,90.0-100.0
90.0,2151.0,1.91,0.62,10.4,0.76,-0.19,1.85,28.08,90.0-100.0
90.0,2608.0,1.19,2.27,10.49,2.57,-0.37,3.37,28.08,90.0-100.0
90.0,2919.0,1.19,3.02,9.36,3.81,-1.55,3.66,28.08,90.0-100.0
90.0,1345.0,0.09,-2.83,10.48,-4.87,-3.47,-2.37,28.06,90.0-100.0
90.0,909.0,0.11,-3.44,10.27,-3.76,1.96,-3.97,28.05,90.0-100.0
90.0,2625.0,-4.22,-1.85,8.0,-1.7,5.45,-3.57,28.09,90.0-100.0
90.0,2864.0,-0.4,-0.64,9.34,-1.76,-1.12,-1.4,28.07,90.0-100.0
90.0,2927.0,1.02,2.53,9.88,4.07,1.27,2.08,28.06,90.0-100.0
90.0,2432.0,1.3,1.21,10.12,0.83,-1.64,1.22,28.07,90.0-100.0
90.0,0.0,-0.8,-0.97,10.02,-2.97,-3.93,-0.26,28.08,90.0-100.0
90.0,2096.0,0.99,-3.1,10.41,-4.09,-2.13,-1.71,28.08,90.0-100.0
90.0,2623.0,1.45,0.67,10.99,0.65,-0.39,1.69,28.07,90.0-100.0
90.0,2190.0,0.62,2.33,9.73,3.09,0.77,2.82,28.07,90.0-100.0
90.0,2927.0,-0.12,3.3,8.84,4.34,0.63,2.99,28.07,90.0-100.0
90.0,1800.0,0.84,2.96,9.66,4.74,2.4,2.26,28.08,90.0-100.0
90.0,0.0,-0.04,-3.62,10.58,-3.55,1.21,-4.18,28.07,90.0-100.0
90.0,2163.0,-3.71,-2.46,8.46,-2.26,3.87,-3.62,28.07,90.0-100.0
90.0,2762.0,-2.05,-1.16,8.58,-2.13,0.13,-1.56,28.05,90.0-100.0
90.0,1907.0,0.68,0.21,10.54,-0.34,-0.42,0.76,28.08,90.0-100.0
90.0,2925.0,2.32,1.7,10.17,1.76,-1.24,2.43,28.08,90.0-100.0
90.0,1113.0,-0.59,0.02,10.2,-1.06,-3.4,0.6,28.05,90.0-100.0
90.0,0.0,-0.15,-2.17,10.2,-2.8,-3.81,-1.31,28.06,90.0-100.0
90.0,2446.0,0.11,-3.26,10.48,-3.84,-1.93,-2.88,28.07,90.0-100.0
90.0,2927.0,1.06,1.73,10.06,2.41,2.59,1.59,28.09,90.0-100.0
90.0,1841.0,0.83,3.12,9.45,3.31,0.22,2.52,28.08,90.0-100.0
90.0,2482.0,1.84,2.83,10.2,3.29,-1.72,2.43,28.07,90.0-100.0
90.0,779.0,1.79,2.0,10.72,3.7,-0.54,1.45,28.07,90.0-100.0
90.0,0.0,0.31,-3.6,10.36,-4.69,0.53,-3.4,28.08,90.0-100.0
90.0,2927.0,-4.03,-2.67,8.7,-3.44,5.15,-2.21,28.06,90.0-100.0
90.0,2113.0,-1.95,-1.04,8.31,-1.55,4.28,0.05,28.07,90.0-100.0
90.0,578.0,0.76,1.18,10.13,0.25,1.41,2.29,28.09,90.0-100.0
90.0,1249.0,0.31,1.7,9.2,3.87,0.37,1.57,28.07,90.0-100.0
90.0,0.0,-1.27,0.22,9.84,-0.77,-5.82,-0.38,28.08,90.0-100.0
90.0,0.0,0.1,-2.39,10.4,-3.96,-5.97,-2.49,28.07,90.0-100.0
90.0,2927.0,0.91,-3.77,10.76,-4.2,-0.07,-3.81,28.07,90.0-100.0
90.0,2926.0,1.21,2.13,10.13,1.78,2.62,1.46,28.08,90.0-100.0
90.0,128.0,0.62,3.24,9.15,3.7,0.31,2.62,28.04,90.0-100.0
90.0,1974.0,1.8,2.64,10.63,3.98,-2.66,2.9,28.06,90.0-100.0
90.0,0.0,1.95,2.04,10.59,3.73,-2.4,2.21,28.05,90.0-100.0
90.0,184.0,-1.84,-3.18,9.46,-3.9,3.43,-2.56,28.05,90.0-100.0
90.0,2927.0,-3.11,-2.28,8.47,-3.16,4.91,-1.6,28.06,90.0-100.0
90.0,1903.0,-0.41,-0.84,9.36,-2.1,2.36,0.08,28.08,90.0-100.0
90.0,192.0,0.71,0.85,10.48,0.04,2.59,1.33,28.07,90.0-100.0
90.0,624.0,1.15,1.33,10.08,1.96,-2.75,0.29,28.07,90.0-100.0
90.0,0.0,-1.31,-0.52,9.54,-0.92,-4.34,-1.56,28.06,90.0-100.0
90.0,0.0,0.16,-2.41,10.48,-3.24,-4.08,-2.78,28.07,90.0-100.0
90.0,2926.0,0.53,-3.55,10.75,-4.41,-1.26,-3.43,28.04,90.0-100.0
90.0,1902.0,0.26,2.47,9.7,2.02,2.78,2.35,28.06,90.0-100.0
90.0,112.0,1.06,3.2,9.25,3.09,-1.03,3.52,28.06,90.0-100.0
90.0,1328.0,1.57,2.72,10.45,4.1,-1.0,3.42,28.07,90.0-100.0
90.0,0.0,1.13,1.97,10.05,4.3,0.42,2.23,28.1,90.0-100.0
90.0,0.0,-1.38,-3.42,9.82,-4.29,1.95,-2.84,28.08,90.0-100.0
90.0,2928.0,-3.58,-2.25,8.49,-2.61,6.06,-2.37,28.08,90.0-100.0
90.0,2559.0,-1.02,-0.73,8.44,-1.06,4.39,-0.79,28.05,90.0-100.0
90.0,604.0,0.69,1.13,10.32,0.3,2.51,0.92,28.05,90.0-100.0
90.0,1247.0,0.82,1.47,9.51,3.15,-0.89,0.32,28.07,90.0-100.0
90.0,0.0,-1.9,0.01,9.38,-0.57,-4.66,-0.99,28.06,90.0-100.0
90.0,0.0,-0.15,-2.14,10.14,-3.29,-4.52,-2.01,28.07,90.0-100.0
90.0,2928.0,0.31,-3.42,10.35,-4.2,-0.53,-2.7,28.07,90.0-100.0
90.0,2645.0,0.93,2.11,10.09,1.92,3.1,2.75,28.08,90.0-100.0
90.0,453.0,0.33,3.24,9.03,3.41,0.25,3.6,28.07,90.0-100.0
90.0,1072.0,1.19,2.87,10.37,4.08,-1.75,3.27,28.06,90.0-100.0
90.0,193.0,2.25,2.12,10.51,3.98,-1.56,1.69,28.08,90.0-100.0
90.0,0.0,-0.94,-3.4,9.93,-4.12,2.07,-3.63,28.07,90.0-100.0
90.0,2926.0,-3.51,-2.64,8.6,-3.51,4.52,-3.2,28.06,90.0-100.0
90.0,1729.0,-1.89,-1.18,8.43,-1.44,5.47,-1.43,28.07,90.0-100.0
90.0,0.0,0.8,0.49,10.07,0.07,3.12,0.9,28.07,90.0-100.0
90.0,816.0,0.9,1.89,9.63,3.57,-1.52,1.43,28.08,90.0-100.0
90.0,0.0,-1.57,0.55,9.65,-0.36,-5.35,0.37,28.05,90.0-100.0
90.0,0.0,-0.15,-2.08,10.66,-4.26,-7.23,-1.08,28.06,90.0-100.0
90.0,2927.0,1.95,-3.79,10.45,-4.25,-0.66,-2.62,28.07,90.0-100.0
90.0,2923.0,1.8,1.1,11.35,-0.33,0.62,2.0,28.08,90.0-100.0
90.0,370.0,1.21,2.54,8.8,3.28,2.1,2.46,28.08,90.0-100.0
90.0,1315.0,-1.25,3.41,9.2,5.84,2.01,2.7,28.08,90.0-100.0
90.0,0.0,2.28,2.53,10.31,4.24,-2.14,1.98,28.07,90.0-100.0
90.0,0.0,-2.17,-3.09,9.77,-2.83,2.42,-3.59,28.05,90.0-100.0
90.0,2926.0,-2.62,-2.74,8.84,-4.34,1.46,-2.87,28.06,90.0-100.0
90.0,2380.0,-1.47,-1.92,9.37,-3.8,1.2,-1.37,28.04,90.0-100.0
90.0,0.0,-0.34,-0.09,9.44,-0.3,5.39,0.55,28.06,90.0-100.0
90.0,860.0,2.5,1.83,10.79,2.8,-3.04,2.27,28.06,90.0-100.0
90.0,0.0,-1.22,1.04,9.1,2.63,-0.19,0.53,28.06,90.0-100.0
90.0,0.0,-2.03,-0.41,8.92,-0.51,-3.33,-1.05,28.07,90.0-100.0
90.0,2735.0,0.62,-2.74,10.92,-4.55,-5.68,-2.61,28.08,90.0-100.0
90.0,2055.0,0.71,1.17,9.85,0.99,3.64,1.22,28.04,90.0-100.0
90.0,1281.0,0.18,2.91,10.06,1.26,-0.97,2.3,28.06,90.0-100.0
90.0,1375.0,2.41,2.54,9.99,1.66,-4.45,2.75,28.07,90.0-100.0
90.0,562.0,1.88,2.32,11.13,4.33,-0.91,2.56,28.05,90.0-100.0
90.0,0.0,1.25,-3.44,10.76,-4.61,-2.59,-2.85,28.05,90.0-100.0
90.0,2607.0,-2.16,-3.31,9.5,-4.2,3.58,-2.76,28.07,90.0-100.0
90.0,2927.0,-2.47,-2.4,8.88,-3.13,4.46,-1.71,28.06,90.0-100.0
90.0,368.0,0.0,-0.88,9.54,-0.78,3.53,0.09,28.07,90.0-100.0
90.0,1584.0,2.26,2.19,11.09,3.57,-1.92,2.14,28.07,90.0-100.0
90.0,0.0,-0.08,1.37,9.44,2.79,-0.92,0.27,28.06,90.0-100.0
90.0,0.0,-1.36,-0.19,9.28,-0.08,-3.35,-1.36,28.08,90.0-100.0
90.0,2382.0,-0.4,-2.27,10.35,-3.24,-4.27,-2.56,28.07,90.0-100.0
90.0,2927.0,0.7,0.18,9.69,0.28,5.04,0.56,28.07,90.0-100.0
90.0,1315.0,0.67,2.45,9.7,2.19,3.65,2.41,28.05,90.0-100.0
90.0,1341.0,0.54,3.15,9.54,2.96,-0.44,3.46,28.06,90.0-100.0
90.0,546.0,2.19,2.51,10.94,3.2,-3.4,3.45,28.05,90.0-100.0
90.0,0.0,0.41,-2.96,10.37,-3.68,-1.59,-2.5,28.06,90.0-100.0
90.0,2927.0,-0.68,-3.46,10.07,-4.54,0.59,-3.08,28.07,90.0-100.0
90.0,2927.0,-2.75,-2.71,9.2,-3.79,3.44,-2.56,28.07,90.0-100.0
90.0,1769.0,-1.6,-1.22,8.62,-1.49,4.6,-1.11,28.08,90.0-100.0
90.0,1506.0,2.31,2.25,11.11,3.82,-2.07,1.91,28.04,90.0-100.0
90.0,634.0,0.92,1.57,9.93,3.46,-0.92,0.55,28.05,90.0-100.0
90.0,0.0,-1.92,0.31,8.78,0.32,-3.41,-0.7,28.08,90.0-100.0
90.0,2928.0,-0.4,-1.91,10.6,-3.48,-5.32,-1.86,28.09,90.0-100.0
90.0,2928.0,0.25,0.16,9.23,-0.25,4.77,1.04,28.07,90.0-100.0
90.0,2112.0,0.37,2.37,10.25,1.46,2.4,2.76,28.06,90.0-100.0
90.0,1558.0,1.46,3.28,9.42,2.34,-1.75,3.6,28.06,90.0-100.0
90.0,735.0,2.08,2.59,10.48,3.47,-2.39,3.11,28.06,90.0-100.0
90.0,0.0,0.88,-3.42,11.13,-4.51,-3.73,-2.78,28.08,90.0-100.0
90.0,2927.0,-1.18,-3.33,9.66,-4.05,2.59,-3.51,28.05,90.0-100.0
90.0,2928.0,-3.39,-2.56,8.52,-3.73,3.56,-2.78,28.08,90.0-100.0
90.0,2023.0,-1.13,-1.54,9.23,-2.03,3.33,-0.99,28.09,90.0-100.0
90.0,2559.0,2.83,2.22,11.17,4.21,-1.55,2.18,28.05,90.0-100.0
90.0,1023.0,0.5,1.56,9.92,3.17,-1.37,1.02,28.07,90.0-100.0
90.0,0.0,-1.79,0.49,9.18,0.54,-4.02,-0.09,28.07,90.0-100.0
90.0,2927.0,-0.27,-1.68,10.7,-3.7,-6.89,-1.43,28.06,90.0-100.0
90.0,2928.0,0.46,0.09,9.16,-0.05,4.4,0.84,28.05,90.0-100.0
90.0,2928.0,1.15,2.1,10.72,0.53,1.0,2.33,28.06,90.0-100.0
90.0,2927.0,2.64,2.68,10.25,1.84,-1.85,2.82,28.07,90.0-100.0
90.0,2255.0,1.52,2.47,10.33,4.05,-1.11,2.61,28.08,90.0-100.0
90.0,0.0,1.72,-3.56,10.83,-5.35,-4.49,-3.07,28.07,90.0-100.0
90.0,2928.0,-0.33,-3.68,10.31,-3.84,2.13,-3.45,28.07,90.0-100.0
90.0,2928.0,-4.66,-2.69,8.26,-3.06,5.84,-2.7,28.08,90.0-100.0
90.0,2897.0,-1.56,-1.46,8.34,-2.16,3.97,-0.82,28.08,90.0-100.0
90.0,2916.0,1.67,2.59,10.52,4.95,-0.16,2.99,28.07,90.0-100.0
90.0,990.0,1.4,2.1,9.8,4.22,-0.68,1.75,28.08,90.0-100.0
90.0,0.0,-0.89,0.87,9.48,1.51,-3.26,0.09,28.07,90.0-100.0
90.0,2928.0,-0.98,-1.35,10.17,-2.64,-5.85,-1.62,28.06,90.0-100.0
90.0,2928.0,-0.55,-0.55,9.03,-1.36,3.1,-0.09,28.06,90.0-100.0
90.0,2927.0,0.6,1.37,10.49,0.47,3.01,1.53,28.05,90.0-100.0
90.0,2770.0,1.16,2.99,9.48,1.9,0.37,2.66,28.06,90.0-100.0
90.0,1827.0,1.31,2.89,9.68,2.89,-1.44,3.08,28.06,90.0-100.0
90.0,142.0,0.82,-2.47,10.56,-3.99,-5.38,-2.24,28.06,90.0-100.0
90.0,2432.0,0.39,-3.54,10.95,-4.34,-0.88,-2.94,28.07,90.0-100.0
90.0,2928.0,-2.44,-3.06,9.3,-4.28,2.68,-2.78,28.06,90.0-100.0
90.0,2928.0,-2.6,-2.28,8.54,-3.39,3.64,-1.69,28.07,90.0-100.0
90.0,2483.0,2.57,2.7,10.89,3.67,-2.43,3.22,28.05,90.0-100.0
90.0,1589.0,2.29,2.07,10.89,4.56,-0.11,1.71,28.09,90.0-100.0
90.0,0.0,-1.05,1.66,8.76,4.01,0.25,0.14,28.07,90.0-100.0
90.0,2672.0,-1.59,0.12,9.14,-0.25,-5.12,-1.16,28.06,90.0-100.0
90.0,2928.0,-2.07,-1.37,7.98,-0.63,6.92,-0.93,28.07,90.0-100.0
90.0,2927.0,0.18,1.35,9.61,0.9,3.7,1.37,28.07,90.0-100.0
90.0,1952.0,0.97,2.81,10.93,0.15,-2.6,2.91,28.07,90.0-100.0
90.0,2416.0,3.68,2.15,9.95,0.96,-4.14,3.17,28.07,90.0-100.0
90.0,0.0,0.59,-1.95,11.81,-5.47,-10.96,-1.16,28.07,90.0-100.0
90.0,1856.0,3.2,-4.41,11.83,-6.57,-6.43,-2.84,28.07,90.0-100.0
90.0,2928.0,-1.72,-3.67,9.68,-3.65,4.75,-3.49,28.08,90.0-100.0
90.0,2927.0,-4.84,-2.29,7.75,-2.07,7.51,-2.38,28.05,90.0-100.0
90.0,2073.0,1.69,2.57,9.95,4.24,-1.03,2.82,28.05,90.0-100.0
90.0,2195.0,1.53,2.57,10.93,5.0,-0.83,2.18,28.07,90.0-100.0
90.0,290.0,0.99,2.01,9.91,3.58,-2.79,1.01,28.07,90.0-100.0
90.0,0.0,-1.72,0.56,9.2,0.91,-3.91,-0.4,28.06,90.0-100.0
90.0,2927.0,-2.64,-2.08,8.54,-2.58,5.5,-1.82,28.05,90.0-100.0
90.0,2926.0,-0.24,-0.28,8.92,-0.17,4.97,0.47,28.05,90.0-100.0
90.0,1364.0,0.33,2.06,10.02,1.14,2.28,2.38,28.06,90.0-100.0
90.0,2926.0,0.69,3.13,9.65,1.55,-0.51,3.13,28.05,90.0-100.0
90.0,1384.0,-1.23,-0.36,9.99,-1.84,-6.63,-0.82,28.06,90.0-100.0
90.0,0.0,1.2,-2.98,11.27,-5.04,-6.55,-2.37,28.08,90.0-100.0
90.0,2924.0,1.1,-3.99,10.68,-5.25,-0.86,-3.52,28.05,90.0-100.0
90.0,2928.0,0.86,2.45,10.25,0.91,0.1,2.43,28.05,90.0-100.0
90.0,323.0,2.05,2.75,9.53,2.59,-1.87,2.99,28.09,90.0-100.0
90.0,2192.0,1.15,2.59,10.25,4.95,0.08,2.73,28.06,90.0-100.0
90.0,0.0,1.28,2.24,10.18,4.97,1.11,1.86,28.04,90.0-100.0
90.0,0.0,-2.1,-3.16,9.48,-3.55,3.65,-3.11,28.06,90.0-100.0
90.0,2928.0,-4.76,-1.95,7.58,-2.45,6.34,-2.03,28.07,90.0-100.0
90.0,2928.0,-1.32,-0.85,8.47,-1.7,4.1,-0.29,28.09,90.0-100.0
90.0,507.0,1.01,0.94,10.52,-0.11,2.43,1.39,28.06,90.0-100.0
90.0,2150.0,0.14,1.83,9.25,3.5,-0.48,0.96,28.07,90.0-100.0
90.0,0.0,-1.59,0.58,9.19,-0.48,-5.62,-0.66,28.07,90.0-100.0
90.0,0.0,-0.22,-2.12,10.72,-3.84,-6.81,-2.11,28.04,90.0-100.0
90.0,2928.0,1.52,-3.64,10.86,-4.7,-1.64,-3.25,28.07,90.0-100.0
90.0,2928.0,0.11,1.73,10.14,0.9,2.66,2.14,28.06,90.0-100.0
90.0,1258.0,1.15,3.06,9.65,2.21,-0.82,3.31,28.06,90.0-100.0
90.0,1872.0,1.72,2.72,10.09,3.69,-2.17,3.51,28.07,90.0-100.0
90.0,41.0,2.0,2.29,11.03,4.77,-0.19,2.49,28.07,90.0-100.0
90.0,0.0,0.01,-3.66,10.31,-4.46,0.72,-3.16,28.05,90.0-100.0
90.0,2928.0,-3.64,-2.73,8.61,-3.82,4.01,-2.76,28.04,90.0-100.0
90.0,2927.0,-2.35,-1.44,8.42,-1.73,5.15,-1.42,28.03,90.0-100.0
90.0,1402.0,0.68,0.13,9.79,0.38,4.8,0.47,28.06,90.0-100.0
90.0,817.0,0.54,2.16,9.92,4.4,0.21,1.02,28.06,90.0-100.0
90.0,208.0,-1.37,1.01,8.73,1.28,-3.41,-0.34,28.05,90.0-100.0
90.0,0.0,-1.07,-1.34,10.28,-2.69,-5.39,-1.68,28.06,90.0-100.0
90.0,2927.0,1.52,-3.63,10.85,-5.33,-4.27,-2.69,28.04,90.0-100.0
90.0,2925.0,1.49,1.51,11.03,0.33,1.23,2.37,28.03,90.0-100.0
90.0,1403.0,0.93,2.7,9.39,1.81,-1.41,3.23,28.05,90.0-100.0
90.0,1795.0,1.64,2.69,9.88,3.87,-0.92,3.05,28.07,90.0-100.0
90.0,64.0,0.63,2.58,10.07,5.98,2.77,2.12,28.07,90.0-100.0
90.0,0.0,0.53,-3.82,10.34,-3.91,1.27,-3.49,28.07,90.0-100.0
90.0,2927.0,-4.03,-2.91,8.77,-2.9,6.32,-3.27,28.07,90.0-100.0
90.0,2379.0,-2.45,-1.65,8.02,-1.88,5.41,-1.74,28.08,90.0-100.0
90.0,1909.0,0.38,-0.21,9.73,-0.2,2.6,0.35,28.06,90.0-100.0
90.0,1270.0,0.54,2.35,9.67,4.88,1.67,1.54,28.04,90.0-100.0
90.0,0.0,-1.41,1.82,8.54,2.34,-2.3,0.61,28.05,90.0-100.0
90.0,0.0,-1.4,-0.29,10.32,-2.31,-6.69,-0.76,28.06,90.0-100.0
90.0,2928.0,1.62,-3.14,11.5,-5.47,-6.45,-2.3,28.07,90.0-100.0
90.0,2927.0,0.53,0.89,10.46,-0.45,1.35,1.72,28.07,90.0-100.0
90.0,1743.0,1.5,2.58,10.65,0.54,-1.2,2.7,28.08,90.0-100.0
90.0,1012.0,2.3,2.66,9.92,2.6,-2.02,2.91,28.08,90.0-100.0
90.0,0.0,1.04,2.36,10.56,4.94,0.43,2.3,28.05,90.0-100.0
90.0,0.0,2.06,-4.03,10.78,-4.98,-2.14,-3.65,28.06,90.0-100.0
90.0,2928.0,-2.25,-3.5,9.69,-2.95,5.74,-3.52,28.06,90.0-100.0
90.0,2927.0,-4.27,-2.15,7.79,-1.94,7.5,-2.15,28.05,90.0-100.0
90.0,1412.0,-0.46,-0.84,8.54,-1.41,2.42,0.09,28.07,90.0-100.0
90.0,1564.0,0.57,2.74,9.8,6.46,4.01,2.55,28.05,90.0-100.0
90.0,339.0,0.44,2.21,8.96,3.73,-0.48,1.33,28.05,90.0-100.0
90.0,0.0,-1.06,0.48,10.19,-1.26,-7.52,-0.24,28.06,90.0-100.0
90.0,1230.0,0.61,-2.22,10.77,-4.17,-7.5,-2.06,28.04,90.0-100.0
90.0,2925.0,0.82,-0.13,10.25,-1.36,2.49,0.21,28.07,90.0-100.0
90.0,2559.0,1.4,1.59,10.61,0.97,2.45,1.65,28.04,90.0-100.0
90.0,2064.0,0.63,2.96,8.93,2.89,0.79,2.66,28.06,90.0-100.0
90.0,869.0,1.09,2.71,10.13,4.1,-0.36,3.05,28.07,90.0-100.0
90.0,0.0,1.18,-3.14,10.81,-3.56,-2.95,-2.56,28.07,90.0-100.0
90.0,578.0,-0.47,-3.6,10.25,-3.87,1.87,-3.1,28.05,90.0-100.0
90.0,2331.0,-3.22,-2.94,8.95,-3.38,4.71,-2.5,28.04,90.0-100.0
90.0,2305.0,-1.83,-1.48,8.54,-1.67,3.75,-0.82,28.05,90.0-100.0
90.0,720.0,0.7,2.76,10.2,4.88,0.79,2.98,28.07,90.0-100.0
90.0,691.0,1.2,2.4,9.52,4.25,0.02,1.63,28.05,90.0-100.0
90.0,0.0,-1.18,1.35,9.52,0.88,-4.04,-0.08,28.06,90.0-100.0
90.0,682.0,-0.8,-1.06,10.4,-2.71,-7.06,-1.69,28.06,90.0-100.0
90.0,2928.0,-0.44,-0.73,9.07,-1.64,3.38,-0.44,28.06,90.0-100.0
90.0,2928.0,1.21,0.82,10.74,0.01,2.24,1.33,28.06,90.0-100.0
90.0,0.0,0.86,2.61,9.53,1.78,0.56,2.73,28.05,90.0-100.0
90.0,819.0,1.82,2.59,10.01,2.76,-1.44,3.3,28.05,90.0-100.0
90.0,0.0,0.35,-2.3,11.05,-4.25,-7.45,-1.71,28.04,90.0-100.0
90.0,0.0,1.71,-3.94,10.73,-4.89,-1.81,-2.98,28.07,90.0-100.0
90.0,2928.0,-2.64,-3.43,9.63,-3.29,5.47,-3.51,28.05,90.0-100.0
90.0,2928.0,-4.67,-1.99,7.43,-1.07,8.95,-2.49,28.05,90.0-100.0
90.0,0.0,1.34,2.52,9.79,4.44,0.1,2.78,28.04,90.0-100.0
90.0,1781.0,-0.04,2.73,9.79,6.72,4.16,2.06,28.04,90.0-100.0
90.0,0.0,1.01,2.45,9.25,3.17,-3.64,1.43,28.03,90.0-100.0
90.0,0.0,-0.68,0.47,11.11,-2.4,-10.03,-0.11,28.04,90.0-100.0
90.0,2928.0,-2.43,-1.04,7.48,-2.48,3.46,-1.21,28.04,90.0-100.0
90.0,2386.0,0.63,-0.13,10.54,-2.19,0.69,0.44,28.04,90.0-100.0
90.0,483.0,1.78,1.14,11.21,-0.05,0.85,1.77,28.05,90.0-100.0
90.0,2257.0,1.58,2.3,9.47,1.96,-0.18,2.9,28.05,90.0-100.0
90.0,0.0,-0.8,-0.87,10.37,-2.34,-6.92,-1.05,28.06,90.0-100.0
90.0,0.0,1.19,-3.06,10.42,-4.38,-5.0,-2.55,28.04,90.0-100.0
90.0,2554.0,0.33,-3.59,10.48,-3.41,1.56,-3.37,28.05,90.0-100.0
90.0,2927.0,-3.65,-2.8,8.61,-2.95,6.32,-3.23,28.07,90.0-100.0
90.0,1169.0,0.87,3.03,9.44,3.31,-0.8,3.2,28.06,90.0-100.0
90.0,1954.0,1.89,2.82,10.74,4.25,-1.64,3.14,28.07,90.0-100.0
90.0,720.0,1.57,2.53,10.26,4.66,-0.1,2.0,28.06,90.0-100.0
90.0,0.0,-0.89,1.87,8.9,3.06,-1.59,0.55,28.06,90.0-100.0
90.0,2606.0,-3.08,-2.96,8.8,-4.25,4.19,-2.58,28.06,90.0-100.0
90.0,2928.0,-1.2,-1.61,8.81,-2.08,4.63,-0.96,28.04,90.0-100.0
90.0,1399.0,0.23,0.48,9.74,0.13,4.02,0.96,28.05,90.0-100.0
90.0,1458.0,0.03,-3.35,10.17,-3.79,3.64,-2.58,27.45,90.0-100.0
90.0,1580.0,0.11,0.29,9.56,-0.33,-2.11,0.66,27.46,90.0-100.0
90.0,2928.0,1.61,3.24,9.61,3.87,-0.45,3.19,27.45,90.0-100.0
90.0,2589.0,-1.33,-3.78,10.33,-6.12,-2.72,-1.22,27.48,90.0-100.0
90.0,2293.0,-1.99,-2.69,8.91,-2.98,4.31,-0.79,27.47,90.0-100.0
90.0,2926.0,0.49,1.28,9.45,0.04,-2.19,1.88,27.46,90.0-100.0
90.0,2815.0,1.99,2.94,10.01,2.92,-0.66,2.33,27.47,90.0-100.0
90.0,0.0,-0.87,-3.66,10.76,-6.49,-5.13,-2.79,27.47,90.0-100.0
90.0,1427.0,-0.06,-3.67,9.71,-3.67,4.46,-4.24,27.47,90.0-100.0
90.0,0.0,-3.22,-0.02,7.56,1.19,4.6,-1.57,27.47,90.0-100.0
90.0,2547.0,2.29,2.12,11.73,0.13,-4.28,1.48,27.45,90.0-100.0
90.0,0.0,-0.11,-0.3,10.29,-1.87,-5.3,-0.35,27.45,90.0-100.0
90.0,0.0,1.87,-4.94,11.53,-8.78,-8.11,-2.23,27.45,90.0-100.0
90.0,2028.0,-2.94,-2.74,8.67,-0.94,9.86,-1.95,27.43,90.0-100.0
90.0,0.0,4.36,1.83,9.61,2.38,-1.38,3.71,27.46,90.0-100.0
90.0,2923.0,-3.73,2.72,8.63,9.07,11.53,2.52,27.46,90.0-100.0
90.0,895.0,-0.1,1.17,9.2,-0.08,-5.93,0.38,27.45,90.0-100.0
90.0,1389.0,1.98,-3.66,13.15,-9.57,-15.36,-2.9,27.47,90.0-100.0
90.0,2927.0,2.74,1.93,11.58,-1.93,-7.74,1.08,27.46,90.0-100.0
90.0,1812.0,4.51,1.61,11.45,-0.84,-5.04,0.93,27.44,90.0-100.0
90.0,2928.0,-0.09,2.15,9.61,6.88,6.11,1.24,27.45,90.0-100.0
90.0,1195.0,-4.55,3.14,7.05,9.23,10.55,1.77,27.46,90.0-100.0
90.0,0.0,-5.34,-2.63,7.34,1.43,16.29,-2.72,27.44,90.0-100.0
90.0,2927.0,-5.48,0.49,5.63,2.86,12.61,0.49,27.47,90.0-100.0
90.0,2545.0,2.84,1.41,11.98,-4.32,-12.08,3.02,27.46,90.0-100.0
90.0,2595.0,4.7,0.76,12.92,-2.75,-6.65,2.29,27.44,90.0-100.0
90.0,1333.0,0.65,0.25,12.61,-5.54,-16.23,-0.06,27.44,90.0-100.0
90.0,1724.0,3.96,-4.46,12.13,-7.73,-9.77,-3.56,27.46,90.0-100.0
90.0,2928.0,0.97,-4.45,9.45,-2.0,5.97,-4.82,27.46,90.0-100.0
90.0,2762.0,-7.76,-1.16,6.61,1.89,15.69,-3.49,27.45,90.0-100.0
90.0,1119.0,1.46,1.86,9.02,5.61,4.54,1.72,27.46,90.0-100.0
90.0,1158.0,-4.1,3.85,8.38,9.68,9.15,2.66,27.43,90.0-100.0
90.0,0.0,0.72,2.85,8.6,3.4,-4.81,2.78,27.47,90.0-100.0
90.0,0.0,1.27,-0.62,13.22,-6.22,-16.18,0.99,27.44,90.0-100.0
90.0,2411.0,-1.57,0.28,7.07,-2.1,0.59,1.16,27.44,90.0-100.0
90.0,2229.0,1.77,0.94,12.37,-4.81,-8.28,1.77,27.47,90.0-100.0
90.0,0.0,3.59,0.99,11.7,-0.22,0.54,1.21,27.47,90.0-100.0
90.0,835.0,0.77,2.2,8.28,5.84,6.32,1.22,27.44,90.0-100.0
90.0,226.0,1.87,-3.54,11.45,-5.53,-8.13,-3.4,27.43,90.0-100.0
90.0,0.0,0.64,-4.04,9.06,-2.32,3.23,-4.26,27.47,90.0-100.0
90.0,2928.0,-4.65,-2.75,8.78,-1.13,7.97,-3.28,27.45,90.0-100.0
