Speed,Voice,Acceleration X,Acceleration Y,Acceleration Z,Gyro X,Gyro Y,Gyro Z,Temperature,Speed_Range
90.0,0.0,2.79,-2.38,8.36,-2.4,-7.52,-0.18,17.91,90.0-100.0
90.0,2462.0,3.62,2.62,12.93,2.56,0.5,1.15,17.89,90.0-100.0
90.0,2398.0,-1.96,-2.09,10.75,-0.34,-8.07,0.21,17.9,90.0-100.0
90.0,625.0,-0.52,-1.07,3.51,-0.33,10.48,-5.59,17.9,90.0-100.0
90.0,1182.0,2.98,3.29,11.65,4.21,-12.12,3.21,17.87,90.0-100.0
90.0,2321.0,-0.92,-3.15,9.47,0.09,4.23,-1.11,17.9,90.0-100.0
90.0,918.0,-3.19,-2.55,10.61,-5.73,9.31,-2.91,17.91,90.0-100.0
90.0,454.0,-0.59,4.95,11.92,6.02,-9.96,5.35,17.91,90.0-100.0
90.0,1727.0,-0.49,-2.84,4.84,-1.78,13.49,-3.79,17.89,90.0-100.0
90.0,1567.0,1.68,1.49,11.43,-0.92,0.87,1.26,17.91,90.0-100.0
90.0,385.0,1.29,3.92,12.45,5.09,-12.16,4.55,17.91,90.0-100.0
90.0,1477.0,-1.07,-3.74,7.9,-1.85,5.13,-2.39,17.91,90.0-100.0
90.0,1968.0,-0.89,4.61,13.97,5.47,-6.71,1.91,17.89,90.0-100.0
90.0,0.0,-0.17,1.42,10.67,2.89,-9.72,2.91,17.89,90.0-100.0
90.0,1392.0,-2.24,-4.59,6.81,-2.61,12.76,-4.52,17.89,90.0-100.0
90.0,1518.0,-0.12,-2.24,11.2,-5.73,5.34,-3.17,17.89,90.0-100.0
90.0,575.0,-0.58,0.05,8.96,0.57,-5.72,3.7,17.92,90.0-100.0
90.0,1439.0,-2.74,-4.88,6.4,-3.53,15.98,-4.19,17.91,90.0-100.0
90.0,1619.0,1.17,-0.97,11.46,-3.23,1.68,-0.83,17.89,90.0-100.0
90.0,1270.0,0.54,6.25,12.4,8.23,-14.59,6.17,17.89,90.0-100.0
90.0,1793.0,-3.06,-4.85,6.87,-3.5,16.43,-6.19,17.89,90.0-100.0
90.0,1323.0,1.37,0.08,11.39,-1.33,-0.18,-1.85,17.89,90.0-100.0
90.0,1663.0,0.41,6.54,12.46,7.91,-14.54,4.68,17.91,90.0-100.0
90.0,2005.0,-0.8,-1.19,8.2,-2.14,-1.66,0.6,17.89,90.0-100.0
90.0,0.0,1.37,0.03,11.29,-1.53,-0.24,-1.49,17.89,90.0-100.0
90.0,1968.0,0.39,6.4,12.78,7.18,-14.68,6.07,17.9,90.0-100.0
90.0,2655.0,-1.14,-1.2,8.2,-2.31,-1.65,2.36,17.89,90.0-100.0
90.0,0.0,-3.79,-5.64,7.42,-4.13,16.07,-5.17,17.9,90.0-100.0
90.0,2613.0,0.3,6.52,12.88,7.7,-14.79,6.29,17.89,90.0-100.0
90.0,1459.0,-1.36,-0.86,8.63,-1.61,-1.94,1.56,17.89,90.0-100.0
90.0,350.0,-3.49,-5.66,7.12,-3.24,16.77,-6.46,17.9,90.0-100.0
90.0,1975.0,1.25,-0.95,11.35,-1.93,0.98,-2.78,17.91,90.0-100.0
90.0,427.0,-1.41,0.25,8.53,-0.22,-2.3,1.98,17.88,90.0-100.0
90.0,1202.0,-3.49,-5.51,7.19,-3.56,16.68,-5.62,17.91,90.0-100.0
90.0,1642.0,1.5,-1.86,11.45,-3.77,1.43,-2.54,17.89,90.0-100.0
90.0,2239.0,0.02,6.96,12.75,6.95,-14.79,5.94,17.89,90.0-100.0
90.0,1985.0,-2.28,-5.75,6.71,-4.09,16.01,-4.66,17.88,90.0-100.0
90.0,0.0,1.56,-2.51,11.46,-4.34,2.41,-3.46,17.91,90.0-100.0
90.0,1869.0,-0.54,6.4,13.91,6.75,-14.73,5.0,17.91,90.0-100.0
90.0,1609.0,-0.74,2.33,8.6,3.37,-2.53,3.14,17.9,90.0-100.0
90.0,0.0,1.43,-3.7,10.97,-5.16,2.93,-5.87,17.88,90.0-100.0
90.0,2007.0,-0.8,6.61,13.37,6.95,-12.6,3.79,17.92,90.0-100.0
90.0,0.0,0.08,4.18,9.18,5.06,-4.39,4.49,17.9,90.0-100.0
90.0,783.0,2.15,-6.34,5.97,-5.36,10.18,-2.89,17.91,90.0-100.0
90.0,1162.0,-1.52,5.43,13.46,4.43,-9.78,4.42,17.91,90.0-100.0
90.0,1578.0,0.8,5.6,10.34,6.85,-5.77,7.19,17.92,90.0-100.0
90.0,791.0,2.77,-5.09,5.9,-5.22,5.23,-0.54,17.92,90.0-100.0
90.0,0.0,-2.3,-5.72,7.35,-5.65,9.69,-7.26,17.88,90.0-100.0
90.0,2064.0,1.04,7.04,11.85,8.54,-9.22,6.22,17.89,90.0-100.0
90.0,1586.0,0.92,-3.93,7.32,-5.22,0.26,-0.92,17.92,90.0-100.0
90.0,0.0,-4.34,-5.87,6.92,-3.87,14.02,-7.93,17.91,90.0-100.0
90.0,2698.0,2.02,1.29,10.77,0.86,-0.9,-1.21,17.9,90.0-100.0
90.0,0.0,-1.02,-1.6,8.32,-3.15,-1.71,1.11,17.9,90.0-100.0
90.0,193.0,-4.7,-6.22,6.93,-4.0,16.74,-6.34,17.91,90.0-100.0
90.0,1301.0,2.25,-0.73,11.04,-2.36,1.04,-1.75,17.91,90.0-100.0
90.0,1443.0,0.29,7.48,13.29,7.44,-16.27,6.92,17.92,90.0-100.0
90.0,1218.0,-3.79,-6.42,6.86,-3.61,17.12,-5.38,17.91,90.0-100.0
90.0,0.0,2.31,-2.64,11.9,-4.49,1.53,-3.67,17.9,90.0-100.0
90.0,1659.0,-0.47,7.13,13.18,7.67,-14.37,5.24,17.91,90.0-100.0
90.0,1755.0,-1.17,2.29,9.02,2.3,-3.62,3.65,17.92,90.0-100.0
90.0,0.0,1.28,-3.73,11.2,-5.62,2.98,-5.24,17.91,90.0-100.0
90.0,2379.0,-1.27,6.69,13.74,7.3,-13.43,4.49,17.92,90.0-100.0
90.0,599.0,0.27,3.47,9.58,3.66,-3.82,4.55,17.89,90.0-100.0
90.0,448.0,0.7,-5.46,6.0,-3.48,12.24,-3.2,17.89,90.0-100.0
90.0,1895.0,-1.88,6.11,13.48,6.42,-10.01,4.08,17.9,90.0-100.0
90.0,1002.0,0.84,4.43,10.3,4.76,-6.39,5.84,17.92,90.0-100.0
90.0,1101.0,1.78,-5.31,6.37,-4.25,7.71,-2.11,17.92,90.0-100.0
90.0,688.0,0.28,-5.52,7.43,-6.78,7.9,-7.19,17.9,90.0-100.0
90.0,1395.0,1.86,5.67,10.89,6.65,-7.32,5.78,17.89,90.0-100.0
90.0,1584.0,1.44,-4.19,6.81,-3.71,3.52,-1.17,17.88,90.0-100.0
90.0,0.0,-2.27,-6.55,6.92,-6.41,11.02,-7.79,17.91,90.0-100.0
90.0,2603.0,0.93,2.64,11.34,3.26,-1.05,0.42,17.89,90.0-100.0
90.0,547.0,-0.47,-2.59,8.21,-3.23,-0.28,0.95,17.89,90.0-100.0
90.0,892.0,-4.5,-6.52,6.8,-5.09,15.59,-6.43,17.9,90.0-100.0
90.0,1703.0,2.32,0.4,10.74,0.06,1.54,-0.89,17.91,90.0-100.0
90.0,1071.0,1.18,7.69,13.44,7.21,-16.56,7.19,17.91,90.0-100.0
90.0,644.0,-4.66,-6.79,7.08,-4.11,17.61,-6.43,17.91,90.0-100.0
90.0,0.0,2.76,-2.33,11.36,-3.91,2.43,-4.48,17.87,90.0-100.0
90.0,1983.0,-0.79,7.8,14.15,7.32,-16.5,5.18,17.87,90.0-100.0
90.0,1855.0,-1.15,2.86,8.46,2.56,-3.27,3.67,17.89,90.0-100.0
90.0,0.0,2.53,-4.29,10.94,-6.7,2.03,-6.25,17.9,90.0-100.0
90.0,2775.0,-2.24,7.01,14.14,6.57,-12.63,4.98,17.91,90.0-100.0
90.0,0.0,0.69,4.88,10.07,5.63,-4.79,6.39,17.91,90.0-100.0
90.0,661.0,2.88,-5.94,5.65,-3.91,7.96,-1.93,17.89,90.0-100.0
90.0,1826.0,-1.88,5.48,12.64,5.44,-5.39,3.3,17.88,90.0-100.0
90.0,2149.0,2.42,6.76,11.8,7.64,-9.03,7.42,17.88,90.0-100.0
90.0,656.0,1.2,-3.88,7.28,-4.0,0.56,-0.08,17.89,90.0-100.0
90.0,0.0,-4.44,-6.72,6.47,-5.73,14.77,-8.26,17.9,90.0-100.0
90.0,2307.0,2.59,7.84,12.76,8.01,-14.07,6.8,17.9,90.0-100.0
90.0,1171.0,-2.07,-1.37,8.62,-2.92,-3.51,1.37,17.89,90.0-100.0
90.0,244.0,-5.34,-7.02,6.85,-4.2,18.69,-7.59,17.9,90.0-100.0
90.0,2193.0,3.09,-1.85,11.32,-3.0,2.72,-3.3,17.9,90.0-100.0
90.0,811.0,-2.72,1.1,8.88,-0.07,-3.98,3.94,17.89,90.0-100.0
90.0,637.0,-2.6,-7.07,5.95,-3.03,18.58,-5.39,17.89,90.0-100.0
90.0,611.0,2.52,-4.35,11.52,-6.29,1.83,-4.66,17.91,90.0-100.0
90.0,2031.0,-2.38,7.57,14.3,6.83,-13.76,5.62,17.91,90.0-100.0
90.0,1456.0,1.99,-6.67,5.44,-3.04,13.35,-3.91,17.89,90.0-100.0
90.0,0.0,0.95,-5.77,8.81,-7.91,4.1,-7.36,17.88,90.0-100.0
90.0,2830.0,-2.63,5.95,13.07,5.78,-6.58,2.85,17.9,90.0-100.0
90.0,0.0,2.59,6.79,11.74,7.49,-8.82,6.9,17.88,90.0-100.0
90.0,986.0,-2.84,-6.97,7.35,-7.63,9.67,-8.61,17.9,90.0-100.0
90.0,1694.0,0.77,3.07,10.38,3.05,1.77,0.04,17.92,90.0-100.0
90.0,2222.0,2.38,7.89,13.51,7.32,-15.06,7.41,17.91,90.0-100.0
90.0,571.0,-2.13,-1.25,8.67,-2.92,-5.28,1.88,17.9,90.0-100.0
90.0,0.0,3.67,-0.56,10.57,-1.13,3.05,-2.88,17.88,90.0-100.0
90.0,1953.0,1.29,7.92,14.48,6.82,-19.67,7.23,17.9,90.0-100.0
90.0,1361.0,-2.58,1.61,8.34,1.32,-2.87,3.64,17.88,90.0-100.0
90.0,0.0,-1.49,-7.39,5.84,-3.35,17.88,-5.27,17.86,90.0-100.0
90.0,2417.0,-1.32,7.71,14.23,6.77,-15.84,6.52,17.88,90.0-100.0
90.0,0.0,-0.3,4.16,9.0,4.95,-4.59,6.08,17.88,90.0-100.0
90.0,850.0,2.35,-6.28,5.36,-3.36,12.07,-3.2,17.9,90.0-100.0
90.0,897.0,0.15,-5.5,8.82,-7.39,6.06,-7.39,17.89,90.0-100.0
90.0,2095.0,0.76,6.06,10.74,6.8,-6.04,6.28,17.89,90.0-100.0
90.0,1213.0,2.25,-5.11,6.29,-4.52,4.59,-2.14,17.89,90.0-100.0
90.0,0.0,-2.09,-6.32,7.13,-6.86,9.52,-8.02,17.9,90.0-100.0
90.0,2238.0,0.49,3.43,11.41,3.08,-1.37,0.22,17.89,90.0-100.0
90.0,559.0,0.36,-3.3,7.53,-4.03,0.67,-0.51,17.89,90.0-100.0
90.0,0.0,-4.54,-6.77,6.69,-5.68,14.43,-7.56,17.91,90.0-100.0
90.0,2427.0,2.06,0.82,10.94,0.73,1.16,-1.37,17.88,90.0-100.0
90.0,538.0,2.07,7.5,13.31,7.56,-17.15,7.8,17.88,90.0-100.0
90.0,787.0,-4.86,-7.35,7.23,-4.29,17.99,-6.43,17.91,90.0-100.0
90.0,141.0,3.12,-1.49,11.24,-2.31,3.28,-3.18,17.89,90.0-100.0
90.0,1264.0,-0.41,8.24,14.07,7.55,-16.74,7.01,17.89,90.0-100.0
90.0,399.0,-1.6,2.43,8.62,1.92,-4.7,4.07,17.91,90.0-100.0
90.0,0.0,2.67,-4.14,11.49,-6.66,1.98,-6.0,17.91,90.0-100.0
90.0,2307.0,-1.89,7.47,14.2,6.39,-13.73,4.94,17.92,90.0-100.0
90.0,0.0,0.25,4.75,9.56,5.38,-4.14,5.44,17.92,90.0-100.0
90.0,662.0,2.85,-6.16,5.51,-4.4,8.5,-3.06,17.91,90.0-100.0
90.0,1392.0,-1.65,5.45,13.0,4.76,-6.81,3.11,17.91,90.0-100.0
90.0,1383.0,1.23,6.15,11.64,7.12,-7.92,6.92,17.89,90.0-100.0
90.0,1274.0,1.94,-4.8,6.93,-4.72,1.98,-0.43,17.93,90.0-100.0
90.0,0.0,-2.28,-6.09,6.45,-5.53,11.72,-7.1,17.88,90.0-100.0
90.0,1205.0,2.26,6.92,12.15,7.9,-11.32,7.27,17.88,90.0-100.0
90.0,1488.0,-0.24,-2.77,7.34,-3.56,0.06,0.65,17.9,90.0-100.0
90.0,0.0,-3.93,-6.26,6.77,-4.78,14.72,-7.55,17.9,90.0-100.0
90.0,1506.0,2.07,0.9,11.23,0.25,-0.24,-1.76,17.9,90.0-100.0
90.0,688.0,-1.15,-1.33,8.46,-2.74,-1.62,0.77,17.9,90.0-100.0
90.0,176.0,-3.94,-6.04,6.49,-3.8,17.68,-7.27,17.91,90.0-100.0
90.0,1403.0,1.85,-0.7,10.99,-2.0,0.81,-2.42,17.91,90.0-100.0
90.0,1018.0,0.51,6.99,13.21,7.09,-15.85,6.1,17.9,90.0-100.0
90.0,1010.0,-3.91,-6.47,7.26,-4.08,16.57,-5.87,17.9,90.0-100.0
90.0,0.0,2.1,-2.3,11.6,-3.93,2.04,-2.66,17.92,90.0-100.0
90.0,1242.0,-0.18,7.55,13.27,7.68,-15.23,6.4,17.89,90.0-100.0
90.0,1579.0,-1.65,2.12,8.84,2.28,-3.94,4.54,17.9,90.0-100.0
90.0,0.0,1.58,-3.54,11.33,-5.3,2.72,-4.54,17.89,90.0-100.0
90.0,2422.0,-1.73,6.99,14.16,6.49,-13.44,4.72,17.9,90.0-100.0
90.0,64.0,-0.36,4.03,9.52,4.92,-3.57,5.38,17.92,90.0-100.0
90.0,75.0,1.88,-6.06,5.78,-3.77,10.6,-3.58,17.91,90.0-100.0
90.0,1603.0,-2.72,6.47,13.51,5.96,-7.89,3.4,17.92,90.0-100.0
90.0,1168.0,1.33,5.91,11.23,6.31,-6.96,6.89,17.89,90.0-100.0
90.0,926.0,1.52,-4.7,6.65,-3.79,4.0,-1.38,17.91,90.0-100.0
90.0,0.0,-2.53,-6.82,6.96,-7.02,9.96,-7.79,17.89,90.0-100.0
90.0,1774.0,3.15,7.06,12.27,7.76,-10.71,7.18,17.88,90.0-100.0
90.0,656.0,-1.32,-2.43,8.5,-3.8,-2.72,0.36,17.89,90.0-100.0
90.0,0.0,-6.69,-7.41,7.26,-5.0,17.87,-8.26,17.92,90.0-100.0
90.0,2928.0,3.54,-1.27,10.98,-1.33,2.27,-2.83,17.88,90.0-100.0
90.0,0.0,-3.03,0.64,8.91,-0.45,-5.43,3.65,17.89,90.0-100.0
90.0,752.0,-2.39,-7.72,5.41,-3.42,20.17,-5.67,17.91,90.0-100.0
90.0,891.0,3.49,-3.55,11.19,-5.01,3.19,-4.81,17.9,90.0-100.0
90.0,1918.0,-3.16,8.02,14.54,5.56,-15.0,5.93,17.91,90.0-100.0
90.0,1833.0,3.23,-6.72,4.75,-3.0,12.45,-3.99,17.92,90.0-100.0
90.0,0.0,0.41,-7.01,9.12,-9.3,2.44,-8.4,17.9,90.0-100.0
90.0,2476.0,-2.2,6.16,12.72,5.61,-3.1,1.91,17.92,90.0-100.0
90.0,0.0,2.91,7.66,12.11,8.68,-8.62,7.3,17.91,90.0-100.0
90.0,754.0,-5.42,-7.29,6.52,-6.48,12.82,-9.27,17.9,90.0-100.0
90.0,1674.0,2.08,1.98,10.18,1.69,2.43,-1.56,17.91,90.0-100.0
90.0,1886.0,2.93,8.23,14.45,7.56,-18.77,8.23,17.89,90.0-100.0
90.0,832.0,-3.09,-0.03,8.81,-2.08,-5.16,3.47,17.89,90.0-100.0
90.0,0.0,3.95,-2.67,11.55,-4.13,4.39,-3.78,17.89,90.0-100.0
90.0,2416.0,-0.28,8.6,14.33,7.01,-20.16,7.94,17.91,90.0-100.0
90.0,858.0,-1.51,2.91,8.83,3.4,-5.6,5.91,17.89,90.0-100.0
90.0,11.0,2.05,-7.09,4.64,-2.39,16.11,-4.26,17.91,90.0-100.0
90.0,2368.0,-2.66,7.21,14.17,6.07,-12.07,5.07,17.91,90.0-100.0
90.0,653.0,1.04,6.45,10.04,8.04,-4.15,6.34,17.88,90.0-100.0
90.0,681.0,2.73,-5.67,5.63,-4.25,6.71,-3.2,17.87,90.0-100.0
90.0,579.0,-2.09,-6.69,7.03,-7.65,9.25,-8.9,17.91,90.0-100.0
90.0,1077.0,2.31,7.2,12.71,7.17,-11.63,7.13,17.88,90.0-100.0
90.0,1934.0,0.23,-3.45,7.68,-4.4,-0.75,0.22,17.89,90.0-100.0
90.0,0.0,-5.23,-7.1,6.8,-6.19,15.99,-7.67,17.89,90.0-100.0
90.0,2334.0,2.53,0.41,10.67,0.48,3.22,-1.26,17.91,90.0-100.0
90.0,0.0,-2.92,-0.84,8.85,-1.65,-3.42,2.68,17.91,90.0-100.0
90.0,587.0,-4.45,-7.47,6.6,-3.97,19.01,-6.45,17.91,90.0-100.0
90.0,2192.0,3.28,-2.23,11.55,-2.78,3.28,-3.93,17.89,90.0-100.0
90.0,2304.0,0.23,8.03,14.26,6.82,-17.64,6.54,17.89,90.0-100.0
90.0,805.0,-0.4,-7.27,5.49,-3.56,18.04,-5.96,17.89,90.0-100.0
90.0,0.0,2.24,-4.24,10.65,-6.26,3.04,-6.8,17.89,90.0-100.0
90.0,2165.0,-1.73,7.4,13.9,5.44,-12.41,4.48,17.9,90.0-100.0
90.0,1401.0,-0.01,5.46,10.75,6.05,-5.88,6.22,17.92,90.0-100.0
90.0,0.0,-0.58,-5.97,8.67,-7.99,4.73,-7.84,17.93,90.0-100.0
90.0,2351.0,-1.69,4.84,12.47,3.81,-4.15,2.01,17.89,90.0-100.0
90.0,27.0,2.04,6.72,12.41,7.81,-10.19,7.71,17.89,90.0-100.0
90.0,390.0,-0.01,-3.7,7.62,-3.85,-0.46,0.02,17.91,90.0-100.0
90.0,627.0,1.35,2.2,10.75,2.62,0.78,-0.25,17.92,90.0-100.0
90.0,1690.0,3.14,7.73,13.44,7.81,-15.76,7.7,17.91,90.0-100.0
90.0,1704.0,-2.92,-0.58,9.25,-1.32,-4.93,2.33,17.89,90.0-100.0
90.0,0.0,-4.87,-7.31,6.26,-3.62,19.88,-6.57,17.89,90.0-100.0
90.0,2534.0,1.06,8.21,14.71,7.0,-20.62,7.76,17.89,90.0-100.0
90.0,80.0,-2.51,2.69,8.15,2.51,-3.24,4.84,17.91,90.0-100.0
90.0,672.0,0.61,-7.17,4.91,-3.38,18.26,-5.26,17.91,90.0-100.0
90.0,2128.0,2.19,-5.89,10.79,-8.63,1.83,-6.83,17.89,90.0-100.0
90.0,2251.0,-0.15,5.03,9.8,5.47,-4.55,6.4,17.92,90.0-100.0
90.0,797.0,3.43,-6.89,5.84,-4.08,7.45,-3.04,17.89,90.0-100.0
90.0,0.0,-0.75,-6.74,6.75,-7.82,7.63,-8.66,17.93,90.0-100.0
90.0,1676.0,-0.42,4.69,10.93,5.01,0.59,0.95,17.89,90.0-100.0
90.0,424.0,0.01,-3.35,7.59,-2.92,-0.93,0.14,17.89,90.0-100.0
90.0,339.0,-6.46,-7.89,6.79,-6.8,16.69,-8.54,17.9,90.0-100.0
90.0,2822.0,3.37,0.06,10.66,0.33,4.62,-1.82,17.9,90.0-100.0
90.0,1555.0,2.3,8.92,14.33,7.56,-19.81,8.45,17.9,90.0-100.0
90.0,549.0,-4.75,-7.5,5.58,-3.07,23.06,-6.9,17.91,90.0-100.0
90.0,435.0,3.76,-3.37,11.74,-5.25,3.55,-5.47,17.9,90.0-100.0
90.0,1803.0,-2.86,8.4,15.4,6.05,-17.93,5.52,17.91,90.0-100.0
90.0,1040.0,-0.13,4.72,9.07,5.09,-3.71,5.47,17.9,90.0-100.0
90.0,0.0,2.3,-6.69,9.62,-9.57,1.97,-8.66,17.88,90.0-100.0
90.0,2928.0,-3.55,7.0,13.22,6.62,-5.92,3.46,17.9,90.0-100.0
90.0,133.0,3.03,6.99,11.91,7.7,-8.19,8.03,17.92,90.0-100.0
90.0,868.0,0.56,-4.42,7.74,-3.74,-1.36,0.71,17.91,90.0-100.0
90.0,912.0,1.58,2.9,10.4,3.58,2.88,0.94,17.91,90.0-100.0
90.0,1930.0,4.61,8.37,13.76,7.12,-18.17,9.33,17.9,90.0-100.0
90.0,1378.0,-4.01,0.03,8.94,-0.39,-5.91,3.91,17.93,90.0-100.0
90.0,0.0,-3.95,-7.99,4.92,-3.84,22.77,-7.64,17.91,90.0-100.0
90.0,2935.0,0.48,8.69,15.48,5.99,-22.05,7.32,17.89,90.0-100.0
90.0,0.0,-2.4,4.06,7.75,4.74,-3.14,5.17,17.9,90.0-100.0
90.0,430.0,2.08,-7.46,4.74,-3.3,16.4,-6.03,17.89,90.0-100.0
90.0,2032.0,1.43,-6.71,9.38,-9.54,2.56,-8.34,17.87,90.0-100.0
90.0,2928.0,1.27,5.77,10.87,6.25,-5.89,7.07,17.9,90.0-100.0
90.0,592.0,2.69,-5.72,6.44,-3.82,4.56,-1.91,17.91,90.0-100.0
90.0,0.0,-4.29,-7.3,6.61,-7.92,10.79,-8.48,17.91,90.0-100.0
90.0,2926.0,1.43,2.49,10.4,2.56,2.73,-0.22,17.91,90.0-100.0
90.0,0.0,-2.19,-2.44,8.74,-3.21,-4.7,1.43,17.89,90.0-100.0
90.0,436.0,-7.03,-8.37,6.77,-5.24,20.81,-8.49,17.91,90.0-100.0
90.0,2928.0,4.38,-1.61,11.3,-1.79,4.82,-3.99,17.89,90.0-100.0
90.0,1776.0,-0.19,9.32,15.41,6.68,-21.58,7.84,17.88,90.0-100.0
90.0,156.0,-0.3,-7.54,4.29,-2.37,20.92,-6.39,17.9,90.0-100.0
90.0,0.0,3.52,-5.53,10.89,-7.92,1.69,-7.29,17.88,90.0-100.0
90.0,2928.0,-3.21,7.75,14.35,5.05,-11.83,5.23,17.89,90.0-100.0
90.0,817.0,1.3,7.02,10.84,8.31,-5.68,7.29,17.91,90.0-100.0
90.0,0.0,-2.35,-7.16,7.46,-8.4,7.23,-9.15,17.89,90.0-100.0
90.0,2927.0,-0.49,4.48,11.1,4.01,-0.46,1.18,17.9,90.0-100.0
90.0,640.0,3.44,7.79,14.08,7.97,-15.27,8.25,17.9,90.0-100.0
90.0,827.0,-2.29,-2.22,8.53,-3.01,-4.79,1.5,17.89,90.0-100.0
90.0,933.0,3.59,0.18,10.63,0.5,4.75,-2.46,17.89,90.0-100.0
90.0,2038.0,2.56,8.54,14.64,6.78,-21.82,8.43,17.89,90.0-100.0
90.0,1341.0,-3.43,1.94,8.28,1.7,-4.68,4.37,17.9,90.0-100.0
90.0,0.0,-0.93,-7.92,5.03,-3.59,20.57,-6.0,17.9,90.0-100.0
90.0,2928.0,-1.5,8.5,15.4,5.7,-18.19,7.0,17.92,90.0-100.0
90.0,0.0,-0.55,4.83,8.53,6.02,-3.33,6.25,17.9,90.0-100.0
90.0,1152.0,3.81,-6.86,4.44,-3.7,11.93,-4.01,17.91,90.0-100.0
90.0,1949.0,-1.0,-6.6,8.17,-8.0,5.6,-8.92,17.89,90.0-100.0
90.0,2928.0,1.39,7.22,11.87,8.55,-7.51,7.27,17.91,90.0-100.0
90.0,1711.0,1.45,-5.13,7.51,-5.28,0.12,-1.27,17.88,90.0-100.0
90.0,0.0,-6.1,-7.36,6.53,-5.56,15.58,-8.43,17.87,90.0-100.0
90.0,2928.0,2.66,1.2,10.23,0.85,3.39,-0.89,17.9,90.0-100.0
90.0,560.0,-2.59,-1.23,8.39,-2.48,-4.35,2.57,17.9,90.0-100.0
90.0,910.0,-6.35,-7.53,6.61,-3.85,21.73,-7.27,17.89,90.0-100.0
90.0,2078.0,3.76,-2.73,11.98,-4.34,2.88,-4.39,17.89,90.0-100.0
90.0,2289.0,-0.56,8.89,14.8,7.4,-18.48,7.44,17.88,90.0-100.0
90.0,1283.0,-0.71,-7.13,4.82,-2.48,18.92,-6.02,17.89,90.0-100.0
90.0,0.0,2.52,-4.8,11.15,-7.02,2.58,-7.3,17.87,90.0-100.0
90.0,2551.0,-2.01,7.16,13.68,5.29,-11.96,4.02,17.89,90.0-100.0
90.0,1328.0,0.73,5.68,10.55,6.85,-5.86,6.07,17.9,90.0-100.0
90.0,427.0,-0.31,-6.02,8.15,-7.39,6.97,-8.17,17.9,90.0-100.0
90.0,2928.0,-1.39,4.97,12.66,4.39,-5.07,2.49,17.9,90.0-100.0
90.0,574.0,2.02,6.73,12.26,7.68,-9.69,7.93,17.9,90.0-100.0
90.0,1338.0,0.62,-3.91,7.58,-4.11,-0.47,0.18,17.89,90.0-100.0
90.0,2238.0,0.97,2.63,11.08,2.66,0.64,0.47,17.91,90.0-100.0
90.0,2928.0,2.62,7.55,13.14,7.9,-15.52,7.99,17.89,90.0-100.0
90.0,2089.0,-2.29,-1.25,9.05,-2.16,-3.49,1.87,17.9,90.0-100.0
90.0,0.0,-4.46,-6.99,6.15,-4.03,19.87,-7.21,17.9,90.0-100.0
90.0,2927.0,1.78,8.13,13.73,7.24,-18.37,6.98,17.89,90.0-100.0
90.0,1424.0,-2.69,1.95,8.38,1.28,-3.39,3.24,17.89,90.0-100.0
90.0,679.0,-2.05,-7.45,6.03,-3.99,17.55,-6.29,17.88,90.0-100.0
90.0,2928.0,2.89,-4.55,11.1,-6.92,2.9,-6.26,17.89,90.0-100.0
90.0,1424.0,-0.2,3.95,8.89,4.19,-4.53,5.35,17.91,90.0-100.0
90.0,406.0,-2.01,3.21,12.57,3.78,-4.97,3.52,17.6,90.0-100.0
90.0,2451.0,0.28,-2.72,8.1,-2.65,-7.87,0.83,17.6,90.0-100.0
90.0,2921.0,3.16,1.41,11.85,-0.13,-1.62,1.82,17.62,90.0-100.0
90.0,2434.0,-0.22,-0.69,11.66,1.87,-6.33,1.41,17.6,90.0-100.0
90.0,727.0,-1.88,-0.59,3.81,1.86,11.21,-4.71,17.59,90.0-100.0
90.0,1616.0,3.28,1.77,11.23,-1.2,-2.75,-0.51,17.6,90.0-100.0
90.0,2927.0,1.13,-4.31,10.17,-2.63,1.19,-2.39,17.6,90.0-100.0
90.0,2192.0,-3.77,-2.26,11.81,-5.15,12.04,-4.81,17.6,90.0-100.0
90.0,1051.0,-2.71,5.24,11.9,6.53,-11.37,5.49,17.61,90.0-100.0
90.0,2928.0,2.53,-2.52,7.11,-4.02,-6.27,1.96,17.6,90.0-100.0
90.0,2592.0,3.13,1.19,11.53,-2.57,-1.02,1.66,17.61,90.0-100.0
90.0,867.0,1.41,3.78,11.34,6.59,-9.86,5.23,17.62,90.0-100.0
90.0,2685.0,-1.34,-4.93,8.6,-3.5,5.32,-1.72,17.6,90.0-100.0
90.0,2078.0,-1.62,-2.0,10.77,-4.54,9.83,-5.87,17.61,90.0-100.0
90.0,837.0,-1.09,0.52,10.45,2.62,-7.89,1.67,17.62,90.0-100.0
90.0,2154.0,-2.92,-4.18,6.17,-1.21,14.1,-5.55,17.61,90.0-100.0
90.0,1824.0,0.75,-0.83,11.19,-4.05,2.52,-2.72,17.59,90.0-100.0
90.0,961.0,0.55,5.77,12.09,7.46,-13.96,6.11,17.6,90.0-100.0
90.0,2089.0,-2.01,-4.1,6.3,-3.62,16.05,-4.74,17.6,90.0-100.0
90.0,2688.0,1.34,1.46,11.76,-1.2,-1.19,1.37,17.6,90.0-100.0
90.0,1793.0,0.39,5.23,12.17,7.11,-13.4,6.71,17.64,90.0-100.0
90.0,2021.0,1.17,-3.53,6.64,-4.16,1.74,-0.71,17.62,90.0-100.0
90.0,1889.0,0.73,2.75,12.83,1.87,-4.87,0.85,17.62,90.0-100.0
90.0,2193.0,0.8,4.77,11.42,7.9,-10.35,4.49,17.62,90.0-100.0
90.0,2480.0,0.81,-4.43,6.51,-4.52,5.48,-2.48,17.63,90.0-100.0
90.0,1514.0,-0.31,-3.36,7.56,-4.16,11.58,-6.66,17.59,90.0-100.0
90.0,2395.0,0.5,4.4,10.72,6.82,-9.58,5.26,17.62,90.0-100.0
90.0,2305.0,0.66,-4.67,6.86,-5.27,8.1,-1.49,17.62,90.0-100.0
90.0,587.0,-0.19,-3.15,8.39,-5.28,9.9,-5.1,17.61,90.0-100.0
90.0,2016.0,-0.2,4.56,13.33,4.31,-10.07,3.87,17.6,90.0-100.0
90.0,2927.0,0.55,-4.84,6.38,-4.83,9.17,-2.54,17.63,90.0-100.0
90.0,0.0,0.01,-3.46,9.37,-5.42,7.74,-6.19,17.59,90.0-100.0
90.0,2928.0,-0.2,4.82,13.51,5.66,-10.86,2.49,17.62,90.0-100.0
90.0,2927.0,0.05,3.16,9.6,5.46,-6.58,3.69,17.62,90.0-100.0
90.0,384.0,0.4,-3.06,9.27,-4.2,7.16,-5.65,17.62,90.0-100.0
90.0,2928.0,-0.06,4.91,13.47,5.15,-11.75,4.37,17.63,90.0-100.0
90.0,1185.0,0.24,3.41,9.52,5.14,-6.03,5.7,17.62,90.0-100.0
90.0,1237.0,0.83,-5.42,6.38,-5.09,10.48,-1.3,17.62,90.0-100.0
90.0,2927.0,-0.37,5.06,13.48,4.85,-10.99,5.29,17.62,90.0-100.0
90.0,534.0,0.4,4.07,9.56,5.82,-5.65,5.32,17.6,90.0-100.0
90.0,2295.0,1.37,-5.44,6.02,-5.18,9.9,-3.14,17.63,90.0-100.0
90.0,1158.0,0.31,-3.8,8.78,-4.81,7.17,-7.21,17.62,90.0-100.0
90.0,2359.0,0.54,4.63,9.92,6.33,-5.91,3.55,17.62,90.0-100.0
90.0,2251.0,1.7,-5.45,6.26,-5.45,7.29,-3.4,17.59,90.0-100.0
90.0,0.0,0.29,-4.14,7.89,-5.04,7.93,-7.0,17.62,90.0-100.0
90.0,2203.0,-0.09,4.35,12.69,4.33,-7.39,3.07,17.61,90.0-100.0
90.0,1792.0,1.95,-4.93,6.01,-4.67,6.32,-0.4,17.6,90.0-100.0
90.0,0.0,-0.96,-4.95,7.4,-5.76,9.57,-5.65,17.61,90.0-100.0
90.0,2928.0,-0.08,3.46,12.55,3.53,-5.54,2.49,17.61,90.0-100.0
90.0,709.0,1.16,6.17,11.62,7.35,-9.14,6.37,17.64,90.0-100.0
90.0,1153.0,-2.3,-5.68,7.31,-5.54,11.05,-7.33,17.63,90.0-100.0
90.0,2503.0,0.75,2.88,11.56,3.84,-2.85,-0.27,17.62,90.0-100.0
90.0,1489.0,1.71,6.54,12.33,6.75,-11.86,5.5,17.62,90.0-100.0
90.0,2928.0,-0.8,-2.28,8.35,-3.24,0.18,0.07,17.62,90.0-100.0
90.0,893.0,1.21,1.77,10.79,1.86,0.32,-0.86,17.6,90.0-100.0
90.0,2419.0,1.84,6.35,12.97,5.5,-16.11,6.92,17.61,90.0-100.0
90.0,2927.0,-1.82,-0.67,8.48,-1.52,-0.38,2.36,17.61,90.0-100.0
90.0,0.0,-3.93,-6.38,7.16,-4.52,17.38,-5.64,17.59,90.0-100.0
90.0,2928.0,0.79,7.32,13.38,7.26,-14.76,6.45,17.62,90.0-100.0
90.0,290.0,-1.98,0.98,8.52,0.64,-2.0,2.2,17.62,90.0-100.0
90.0,1808.0,-2.4,-6.82,6.61,-3.93,15.75,-6.25,17.62,90.0-100.0
90.0,1679.0,2.45,-3.11,11.51,-3.9,1.92,-5.12,17.62,90.0-100.0
90.0,2162.0,-0.87,2.77,8.76,3.63,-3.4,4.1,17.62,90.0-100.0
90.0,2032.0,0.87,-6.65,5.88,-4.34,14.94,-3.47,17.62,90.0-100.0
90.0,0.0,1.09,-4.2,9.64,-5.54,4.3,-4.91,17.62,90.0-100.0
90.0,2928.0,-1.26,5.92,13.23,4.43,-10.74,4.88,17.62,90.0-100.0
90.0,2928.0,3.19,-5.97,5.51,-5.7,8.07,-1.52,17.62,90.0-100.0
90.0,0.0,-0.36,-5.07,7.94,-5.32,7.17,-6.92,17.63,90.0-100.0
90.0,2927.0,-0.51,4.15,12.38,3.05,-5.23,0.89,17.6,90.0-100.0
90.0,606.0,0.52,6.61,11.93,8.71,-8.58,5.03,17.6,90.0-100.0
90.0,896.0,-3.64,-5.67,7.47,-4.52,10.44,-8.64,17.6,90.0-100.0
90.0,2221.0,1.07,2.34,11.26,1.61,-2.46,-0.82,17.61,90.0-100.0
90.0,2239.0,1.33,7.58,12.47,8.45,-11.92,6.87,17.62,90.0-100.0
90.0,1713.0,-0.64,-2.28,8.07,-4.02,-1.54,1.73,17.61,90.0-100.0
90.0,320.0,1.96,0.92,10.94,0.5,-0.32,-0.02,17.62,90.0-100.0
90.0,2015.0,1.73,6.76,13.15,6.63,-15.98,8.02,17.62,90.0-100.0
90.0,2336.0,-2.05,-0.35,9.06,-0.94,-2.05,2.94,17.6,90.0-100.0
90.0,0.0,-3.68,-6.19,6.71,-3.32,17.04,-5.96,17.6,90.0-100.0
90.0,2346.0,1.15,7.25,13.06,7.73,-15.23,5.42,17.6,90.0-100.0
90.0,18.0,-1.77,1.35,8.69,0.99,-2.32,1.79,17.61,90.0-100.0
90.0,1149.0,-2.5,-6.15,6.43,-3.33,16.54,-6.45,17.59,90.0-100.0
90.0,2225.0,1.51,-2.9,11.62,-4.96,1.43,-5.03,17.6,90.0-100.0
90.0,2928.0,-1.61,2.43,9.09,2.12,-3.95,4.28,17.6,90.0-100.0
90.0,2465.0,-0.45,-6.55,6.24,-4.05,14.42,-3.67,17.62,90.0-100.0
90.0,57.0,1.69,-4.83,10.23,-7.09,3.51,-4.51,17.62,90.0-100.0
90.0,2928.0,-3.14,6.68,13.94,6.51,-9.48,5.03,17.59,90.0-100.0
90.0,1430.0,1.84,-5.94,5.97,-3.55,9.63,-1.99,17.61,90.0-100.0
90.0,3.0,0.36,-6.05,7.53,-7.06,6.01,-7.76,17.61,90.0-100.0
90.0,2927.0,-0.91,4.74,12.1,5.03,-3.56,0.69,17.62,90.0-100.0
90.0,1034.0,2.46,6.98,12.25,7.79,-9.86,5.49,17.62,90.0-100.0
90.0,2128.0,-4.65,-6.78,7.26,-6.28,12.6,-9.1,17.6,90.0-100.0
90.0,1957.0,1.89,1.85,10.56,1.69,1.39,-1.38,17.6,90.0-100.0
90.0,2928.0,2.17,7.98,13.43,7.4,-16.72,7.88,17.62,90.0-100.0
90.0,816.0,-2.61,-0.05,8.67,-2.07,-3.69,3.5,17.62,90.0-100.0
90.0,0.0,3.26,-1.76,11.1,-2.66,3.1,-2.28,17.62,90.0-100.0
90.0,2928.0,-0.01,7.99,14.27,6.71,-17.98,7.62,17.6,90.0-100.0
90.0,1226.0,-1.84,2.3,8.67,2.51,-3.37,4.6,17.62,90.0-100.0
90.0,953.0,0.68,-6.89,5.16,-2.66,16.36,-5.47,17.6,90.0-100.0
90.0,2928.0,-1.83,7.2,13.93,6.57,-13.32,3.88,17.59,90.0-100.0
90.0,2197.0,-0.13,5.34,9.9,6.49,-3.66,5.2,17.61,90.0-100.0
90.0,782.0,2.65,-5.92,6.01,-3.68,7.8,-3.21,17.6,90.0-100.0
90.0,417.0,-0.92,-6.16,7.46,-7.3,6.61,-7.06,17.61,90.0-100.0
90.0,2928.0,2.44,6.8,11.56,7.27,-8.48,8.05,17.6,90.0-100.0
90.0,1213.0,0.95,-3.96,7.49,-4.77,0.82,0.59,17.59,90.0-100.0
90.0,0.0,-5.34,-7.22,7.22,-6.55,14.21,-7.27,17.62,90.0-100.0
90.0,2928.0,2.22,0.97,10.45,0.79,3.19,-1.56,17.58,90.0-100.0
90.0,97.0,-2.3,-1.04,8.91,-2.58,-4.12,1.38,17.6,90.0-100.0
90.0,1693.0,-5.47,-7.51,6.85,-3.87,19.44,-8.02,17.6,90.0-100.0
90.0,2484.0,3.46,-2.51,11.62,-3.16,2.64,-5.47,17.63,90.0-100.0
90.0,2559.0,-0.6,7.93,14.63,6.88,-17.79,6.34,17.61,90.0-100.0
90.0,2000.0,-0.3,-7.49,5.37,-3.33,17.3,-5.15,17.6,90.0-100.0
90.0,0.0,2.46,-4.71,10.45,-6.46,2.78,-5.52,17.6,90.0-100.0
90.0,2928.0,-2.03,7.0,13.71,5.3,-11.81,6.34,17.59,90.0-100.0
90.0,1733.0,0.74,6.16,10.35,7.04,-4.03,7.73,17.6,90.0-100.0
90.0,1014.0,-0.53,-5.61,7.48,-6.41,6.64,-6.97,17.59,90.0-100.0
90.0,2928.0,-0.64,4.35,11.6,3.26,-3.53,1.46,17.59,90.0-100.0
90.0,1395.0,2.01,7.24,12.68,8.39,-10.24,5.81,17.59,90.0-100.0
90.0,1647.0,-0.06,-3.25,7.66,-4.29,-1.19,-1.15,17.62,90.0-100.0
90.0,1898.0,2.23,1.57,10.86,1.31,0.03,-2.14,17.59,90.0-100.0
90.0,2928.0,1.71,7.91,13.25,7.93,-15.18,6.74,17.62,90.0-100.0
90.0,2928.0,-2.27,-0.66,8.89,-2.31,-3.34,2.63,17.61,90.0-100.0
90.0,477.0,-4.84,-6.72,6.45,-3.26,18.84,-5.32,17.62,90.0-100.0
90.0,2927.0,0.55,7.96,13.48,7.61,-17.35,8.42,17.62,90.0-100.0
90.0,737.0,-1.71,1.96,8.43,1.0,-3.82,5.24,17.6,90.0-100.0
90.0,1408.0,-1.3,-7.27,6.94,-3.47,16.37,-4.8,17.63,90.0-100.0
90.0,2756.0,2.15,-4.31,10.69,-6.05,3.72,-6.48,17.62,90.0-100.0
90.0,2930.0,-0.06,3.77,9.15,4.25,-4.35,4.08,17.62,90.0-100.0
90.0,2277.0,2.02,-5.83,5.39,-2.28,11.18,-4.63,17.63,90.0-100.0
90.0,243.0,1.08,-5.49,8.09,-7.71,4.73,-8.37,17.62,90.0-100.0
90.0,2928.0,-1.46,5.17,12.9,4.33,-5.69,3.01,17.62,90.0-100.0
90.0,2928.0,2.2,-5.19,6.62,-5.04,4.01,-0.5,17.61,90.0-100.0
90.0,669.0,-2.97,-6.8,6.99,-7.1,10.12,-7.03,17.62,90.0-100.0
90.0,2928.0,1.28,2.64,10.65,2.71,-0.34,1.5,17.6,90.0-100.0
90.0,1567.0,2.7,7.94,12.65,8.07,-13.5,7.29,17.59,90.0-100.0
90.0,2289.0,-5.56,-6.95,6.78,-4.48,17.73,-8.52,17.61,90.0-100.0
90.0,2928.0,2.86,-0.43,10.62,-0.16,2.88,-3.36,17.6,90.0-100.0
90.0,2357.0,1.33,7.93,13.89,7.27,-18.13,5.85,17.6,90.0-100.0
90.0,2064.0,-2.76,1.71,8.87,1.06,-4.15,3.64,17.61,90.0-100.0
90.0,437.0,2.78,-3.46,11.94,-5.19,3.31,-4.57,17.62,90.0-100.0
90.0,2928.0,-2.49,8.26,14.71,6.65,-15.78,6.8,17.59,90.0-100.0
90.0,963.0,-0.39,4.07,8.73,4.01,-2.66,6.87,17.61,90.0-100.0
90.0,204.0,2.44,-6.47,5.38,-3.36,11.34,-2.98,17.59,90.0-100.0
90.0,2928.0,-3.35,6.83,13.7,6.25,-8.38,4.23,17.6,90.0-100.0
90.0,2928.0,2.54,6.16,10.99,6.71,-6.81,6.6,17.6,90.0-100.0
90.0,1559.0,1.81,-4.8,7.36,-3.51,1.85,-2.2,17.61,90.0-100.0
90.0,1124.0,-4.02,-7.35,6.78,-7.04,12.33,-9.24,17.61,90.0-100.0
90.0,2691.0,4.15,7.46,12.39,7.24,-13.87,7.12,17.62,90.0-100.0
90.0,2039.0,-2.11,-1.55,9.1,-1.99,-5.07,2.4,17.6,90.0-100.0
90.0,885.0,-4.91,-7.52,6.01,-5.06,19.2,-6.46,17.6,90.0-100.0
90.0,2927.0,3.4,-1.61,11.55,-1.88,3.54,-2.13,17.6,90.0-100.0
90.0,2227.0,-3.7,2.54,8.03,1.87,-3.33,5.5,17.59,90.0-100.0
90.0,2155.0,-0.73,-7.81,5.29,-3.64,18.36,-6.11,17.6,90.0-100.0
90.0,688.0,3.21,-5.63,10.77,-7.94,1.46,-7.29,17.59,90.0-100.0
90.0,2903.0,-4.97,8.4,14.48,6.88,-10.96,3.43,17.63,90.0-100.0
90.0,2102.0,3.45,-6.53,6.1,-2.78,8.82,-4.62,17.62,90.0-100.0
90.0,1731.0,-1.64,-7.81,7.23,-9.76,5.26,-9.76,17.61,90.0-100.0
90.0,2928.0,-0.6,4.52,10.42,5.27,2.94,0.36,17.61,90.0-100.0
90.0,1424.0,5.7,7.72,13.35,7.03,-16.45,9.33,17.6,90.0-100.0
90.0,2436.0,-7.51,-8.25,6.32,-6.41,19.32,-7.32,17.61,90.0-100.0
90.0,763.0,4.78,-1.17,10.83,-0.66,7.35,-2.4,17.6,90.0-100.0
90.0,2927.0,0.04,8.86,16.6,4.85,-24.19,8.71,17.59,90.0-100.0
90.0,1696.0,-2.95,4.44,7.09,5.53,-2.11,5.36,17.6,90.0-100.0
90.0,602.0,4.55,-6.11,10.77,-7.86,0.32,-8.54,17.59,90.0-100.0
90.0,2927.0,-4.48,8.56,13.79,5.27,-10.94,4.07,17.6,90.0-100.0
90.0,1725.0,2.32,7.51,11.55,9.53,-5.48,6.75,17.59,90.0-100.0
90.0,1565.0,0.87,-5.2,8.36,-5.04,-2.26,-1.55,17.6,90.0-100.0
90.0,1805.0,1.84,3.09,9.85,2.92,5.31,-0.18,17.6,90.0-100.0
90.0,2928.0,5.07,8.64,15.59,7.2,-23.87,10.43,17.59,90.0-100.0
90.0,458.0,-5.11,0.67,7.13,-0.23,-6.41,4.72,17.61,90.0-100.0
90.0,831.0,-1.21,-8.8,2.81,-2.86,28.27,-7.32,17.6,90.0-100.0
90.0,2928.0,-2.69,10.13,17.08,5.63,-25.27,8.86,17.59,90.0-100.0
90.0,1736.0,-1.81,5.69,8.07,8.1,-1.54,6.71,17.6,90.0-100.0
90.0,1067.0,5.06,-8.07,4.67,-3.18,12.02,-4.81,17.6,90.0-100.0
90.0,1920.0,-3.86,-7.34,6.99,-8.9,9.06,-10.19,17.59,90.0-100.0
90.0,2559.0,6.28,8.27,12.44,10.05,-12.94,8.66,17.6,90.0-100.0
90.0,2258.0,-2.86,-2.05,7.79,-2.25,-4.59,0.92,17.61,90.0-100.0
90.0,992.0,-7.87,-8.83,5.33,-7.19,26.6,-9.44,17.61,90.0-100.0
90.0,2925.0,5.46,-2.19,13.09,-3.04,5.1,-3.29,17.6,90.0-100.0
90.0,1753.0,-5.22,2.56,6.5,3.18,-4.14,5.56,17.62,90.0-100.0
90.0,2060.0,2.25,-8.7,2.16,-2.86,24.99,-7.15,17.61,90.0-100.0
90.0,1847.0,2.45,-7.13,11.28,-9.76,1.17,-8.28,17.6,90.0-100.0
90.0,2928.0,-4.89,7.54,14.16,5.43,-9.81,3.7,17.59,90.0-100.0
90.0,711.0,2.78,-6.5,6.64,-3.12,5.13,-3.65,17.59,90.0-100.0
90.0,1666.0,-5.46,-8.44,6.75,-9.5,12.51,-9.94,17.62,90.0-100.0
90.0,2928.0,2.33,2.85,10.47,4.43,6.44,-0.11,17.59,90.0-100.0
90.0,2512.0,6.21,8.46,15.3,5.53,-27.85,10.4,17.58,90.0-100.0
90.0,2928.0,-4.69,-8.63,3.74,-5.67,28.23,-7.94,17.59,90.0-100.0
90.0,976.0,5.28,-3.32,13.08,-4.69,4.36,-3.97,17.6,90.0-100.0
90.0,2928.0,-4.18,9.32,17.12,3.72,-23.82,7.84,17.58,90.0-100.0
90.0,0.0,-1.21,6.37,8.79,8.89,-0.96,6.84,17.6,90.0-100.0
90.0,1834.0,0.04,-7.5,9.25,-10.32,2.2,-9.56,17.59,90.0-100.0
90.0,2928.0,-2.43,6.74,11.32,6.01,-1.66,1.46,17.6,90.0-100.0
90.0,2449.0,7.71,7.54,12.81,8.36,-16.48,8.22,17.6,90.0-100.0
90.0,1626.0,-4.41,-1.5,8.23,-1.36,-6.65,1.29,17.59,90.0-100.0
90.0,2021.0,5.34,-0.06,12.01,0.79,8.22,-2.2,17.6,90.0-100.0
90.0,2928.0,1.4,9.13,17.55,4.25,-30.79,10.49,17.6,90.0-100.0
90.0,0.0,-5.23,4.47,6.27,6.57,-1.69,7.27,17.61,90.0-100.0
90.0,2003.0,4.99,-8.71,2.5,-3.12,21.24,-5.44,17.62,90.0-100.0
90.0,2927.0,-5.66,8.87,14.89,5.05,-14.57,6.36,17.62,90.0-100.0
90.0,2899.0,3.34,7.66,11.11,10.55,-5.77,7.88,17.6,90.0-100.0
90.0,768.0,-0.12,-4.78,8.32,-4.17,-1.43,-2.83,17.6,90.0-100.0
90.0,1963.0,-8.61,-8.23,5.33,-7.73,23.12,-11.47,17.61,90.0-100.0
90.0,2928.0,7.18,8.55,14.99,6.2,-28.15,8.54,17.61,90.0-100.0
90.0,64.0,-6.25,1.25,6.68,1.75,-6.07,3.5,17.6,90.0-100.0
90.0,2919.0,0.3,-9.67,2.32,-4.45,29.43,-7.88,17.59,90.0-100.0
90.0,2928.0,3.98,-5.5,12.17,-7.89,1.37,-5.58,17.6,90.0-100.0
90.0,2928.0,-1.88,6.34,7.95,9.42,-0.76,8.66,17.6,90.0-100.0
90.0,1441.0,4.09,-7.18,4.74,-3.32,11.32,-3.7,17.6,90.0-100.0
90.0,1249.0,-3.87,-8.44,7.9,-10.58,8.53,-9.93,17.61,90.0-100.0
90.0,2928.0,0.95,4.31,10.81,5.2,3.17,-0.07,17.61,90.0-100.0
90.0,608.0,-2.98,-2.44,8.43,-2.0,-4.06,-0.59,17.61,90.0-100.0
90.0,2928.0,-7.73,-8.24,5.13,-6.05,26.73,-10.31,17.61,90.0-100.0
90.0,2929.0,5.43,-1.83,12.62,-1.93,5.1,-4.33,17.59,90.0-100.0
90.0,2928.0,0.3,9.44,16.2,4.19,-27.27,9.19,17.59,90.0-100.0
90.0,445.0,3.0,-8.69,2.32,-4.03,24.76,-6.07,17.59,90.0-100.0
90.0,959.0,2.01,-6.02,11.01,-8.34,2.75,-6.13,17.59,90.0-100.0
90.0,2928.0,-3.86,7.55,14.27,4.01,-10.96,5.18,17.59,90.0-100.0
90.0,0.0,1.35,7.44,12.45,10.05,-8.71,8.72,17.59,90.0-100.0
90.0,1280.0,-5.23,-7.62,7.43,-7.65,11.26,-9.5,17.58,90.0-100.0
90.0,2928.0,1.4,3.49,11.53,3.44,2.11,-1.27,17.61,90.0-100.0
90.0,2928.0,4.8,8.08,14.62,7.33,-21.24,8.52,17.59,90.0-100.0
90.0,1213.0,-4.03,-0.24,8.23,-0.22,-5.25,1.72,17.57,90.0-100.0
90.0,933.0,3.63,-1.22,11.82,-1.3,5.42,-3.52,17.59,90.0-100.0
90.0,2928.0,2.55,8.06,15.16,4.21,-24.96,9.3,17.6,90.0-100.0
90.0,2000.0,-2.7,3.62,7.42,5.18,-4.03,6.11,17.61,90.0-100.0
90.0,1248.0,2.13,-7.95,4.17,-5.19,18.22,-5.12,17.59,90.0-100.0
90.0,2928.0,-1.67,7.09,14.62,4.01,-15.9,5.79,17.59,90.0-100.0
90.0,1072.0,-0.7,5.61,9.94,8.36,-5.34,6.16,17.59,90.0-100.0
90.0,1717.0,3.13,-6.26,4.86,-3.91,8.93,-4.17,17.6,90.0-100.0
90.0,2429.0,-1.83,-5.99,7.72,-6.51,8.96,-8.51,17.59,90.0-100.0
90.0,2929.0,1.42,6.77,12.42,8.25,-9.63,7.04,17.6,90.0-100.0
90.0,1973.0,0.35,-4.13,7.12,-4.28,2.3,-1.03,17.58,90.0-100.0
90.0,0.0,-3.86,-6.72,6.93,-6.37,13.23,-6.78,17.6,90.0-100.0
90.0,2928.0,1.14,2.13,11.21,2.04,0.41,0.34,17.6,90.0-100.0
90.0,2277.0,-1.58,-1.83,8.47,-2.34,-1.92,1.76,17.59,90.0-100.0
90.0,1168.0,-4.03,-6.79,6.51,-5.35,17.53,-6.77,17.61,90.0-100.0
90.0,2928.0,2.02,-0.21,11.2,-0.19,2.64,-2.83,17.6,90.0-100.0
90.0,1205.0,1.86,6.93,13.48,6.1,-17.49,5.71,17.61,90.0-100.0
90.0,2172.0,-3.03,-6.93,6.36,-4.64,18.08,-7.42,17.59,90.0-100.0
90.0,789.0,2.23,-1.66,11.47,-2.1,2.26,-4.31,17.6,90.0-100.0
90.0,2369.0,0.56,7.01,13.49,5.63,-16.43,6.05,17.6,90.0-100.0
90.0,2429.0,-1.32,2.71,8.37,3.49,-3.6,4.78,17.62,90.0-100.0
90.0,351.0,1.4,-3.17,10.94,-4.72,3.78,-3.96,17.59,90.0-100.0
90.0,2479.0,-0.55,6.58,13.64,5.08,-14.19,6.07,17.59,90.0-100.0
90.0,2369.0,-0.14,3.87,9.11,5.23,-4.5,5.29,17.59,90.0-100.0
90.0,0.0,1.51,-6.08,5.74,-4.71,11.84,-4.48,17.58,90.0-100.0
90.0,2928.0,-1.2,5.42,13.59,4.86,-10.19,2.65,17.59,90.0-100.0
90.0,368.0,-0.01,4.89,10.14,6.95,-5.48,4.77,17.59,90.0-100.0
90.0,1636.0,1.99,-5.51,6.01,-4.95,7.37,-3.14,17.6,90.0-100.0
90.0,2317.0,-0.62,-5.0,7.92,-5.61,8.24,-6.37,17.59,90.0-100.0
90.0,2394.0,0.69,5.34,11.53,6.78,-8.45,6.9,17.6,90.0-100.0
90.0,2685.0,1.61,-4.49,6.12,-4.75,5.63,-0.72,17.58,90.0-100.0
90.0,0.0,-2.4,-5.28,7.52,-5.25,10.36,-5.76,17.57,90.0-100.0
90.0,2928.0,-0.07,3.24,12.09,2.57,-3.45,0.97,17.59,90.0-100.0
90.0,2928.0,0.72,-3.67,7.25,-4.55,1.68,-1.21,17.58,90.0-100.0
90.0,84.0,-3.23,-5.79,7.28,-4.69,12.86,-7.39,17.6,90.0-100.0
90.0,2928.0,0.53,2.17,11.7,1.9,-0.58,-1.26,17.57,90.0-100.0
90.0,868.0,0.9,6.52,13.02,7.38,-14.05,6.4,17.57,90.0-100.0
90.0,1507.0,-3.63,-6.2,7.16,-4.63,14.83,-6.78,17.58,90.0-100.0
90.0,2819.0,1.24,1.08,11.52,0.54,-0.66,-0.8,17.59,90.0-100.0
90.0,2295.0,1.03,6.55,12.92,7.09,-14.24,7.59,17.6,90.0-100.0
90.0,2027.0,-1.38,-0.84,8.51,-2.37,-1.16,1.67,17.57,90.0-100.0
90.0,2423.0,1.31,0.37,11.3,-0.62,1.27,-1.5,17.58,90.0-100.0
90.0,2352.0,0.39,6.21,13.19,6.85,-15.11,6.28,17.58,90.0-100.0
90.0,1646.0,-1.55,-0.52,8.87,-1.39,-1.79,0.4,17.58,90.0-100.0
90.0,318.0,-3.55,-5.97,7.57,-3.62,15.7,-6.54,17.58,90.0-100.0
90.0,2928.0,0.52,6.4,12.94,7.44,-14.94,5.52,17.61,90.0-100.0
90.0,2839.0,-1.48,0.05,8.83,-0.46,-2.53,1.09,17.58,90.0-100.0
90.0,731.0,-2.91,-6.19,7.12,-4.29,16.02,-5.35,17.59,90.0-100.0
90.0,2928.0,0.98,-0.92,11.78,-2.31,1.72,-2.39,17.59,90.0-100.0
90.0,2053.0,-1.49,0.84,8.63,0.42,-2.3,2.57,17.59,90.0-100.0
90.0,768.0,-2.58,-6.29,7.37,-4.51,15.43,-4.81,17.59,90.0-100.0
90.0,2929.0,0.55,-1.66,11.97,-3.27,2.06,-3.49,17.59,90.0-100.0
