Speed,Voice,Acceleration X,Acceleration Y,Acceleration Z,Gyro X,Gyro Y,Gyro Z,Temperature,Speed_Range
90.0,19.0,1.68,0.91,5.6,-1.39,11.32,-4.16,17.76,90.0-100.0
90.0,1390.0,1.6,3.34,13.08,5.17,-1.04,3.69,17.77,90.0-100.0
90.0,865.0,-0.9,-3.12,7.29,-2.84,-11.57,1.3,17.76,90.0-100.0
90.0,1602.0,2.07,-0.72,6.96,-3.24,10.47,-5.09,17.77,90.0-100.0
90.0,102.0,2.54,-1.14,14.86,1.43,-8.85,1.24,17.79,90.0-100.0
90.0,21.0,-4.88,-1.04,4.96,2.3,12.39,-4.81,17.78,90.0-100.0
90.0,2160.0,1.61,1.39,9.57,-0.65,-0.85,-0.72,17.76,90.0-100.0
90.0,1349.0,3.07,2.11,14.39,2.74,-11.83,4.43,17.77,90.0-100.0
90.0,431.0,-1.12,-3.12,8.35,-5.16,13.92,-4.83,17.78,90.0-100.0
90.0,1211.0,-1.39,3.91,11.66,3.17,-5.46,3.73,17.78,90.0-100.0
90.0,982.0,1.02,0.7,10.63,1.72,-10.24,4.43,17.77,90.0-100.0
90.0,48.0,-2.14,-3.82,6.1,-2.58,14.3,-3.87,17.77,90.0-100.0
90.0,1968.0,0.56,5.27,12.14,6.33,-13.02,5.04,17.77,90.0-100.0
90.0,1428.0,0.43,-1.37,7.89,0.06,-2.88,0.16,17.78,90.0-100.0
90.0,154.0,-1.32,-4.99,6.8,-5.32,15.5,-7.82,17.77,90.0-100.0
90.0,1317.0,-0.55,2.47,12.4,2.85,0.49,-0.56,17.79,90.0-100.0
90.0,979.0,-0.58,-2.8,7.31,-1.99,0.46,-1.11,17.79,90.0-100.0
90.0,310.0,-0.79,-4.42,6.57,-5.22,12.79,-5.44,17.78,90.0-100.0
90.0,1322.0,0.45,3.28,13.08,2.47,-4.78,2.91,17.77,90.0-100.0
90.0,263.0,0.55,5.01,11.77,6.54,-10.42,6.84,17.77,90.0-100.0
90.0,726.0,-1.23,-4.23,7.21,-5.41,12.21,-5.58,17.78,90.0-100.0
90.0,1580.0,-0.02,3.39,12.85,3.38,-5.8,1.88,17.77,90.0-100.0
90.0,0.0,0.57,4.9,12.03,6.65,-10.77,5.06,17.75,90.0-100.0
90.0,1113.0,0.57,-3.98,6.77,-4.08,4.9,-2.89,17.77,90.0-100.0
90.0,1404.0,-0.41,3.55,12.72,4.19,-4.81,0.27,17.77,90.0-100.0
90.0,1709.0,0.51,5.69,11.92,7.41,-10.71,5.44,17.77,90.0-100.0
90.0,1506.0,0.37,-3.8,7.14,-4.4,2.98,-0.72,17.77,90.0-100.0
90.0,0.0,-2.09,-5.61,7.34,-5.73,12.63,-5.59,17.77,90.0-100.0
90.0,1655.0,1.52,6.18,12.31,6.74,-10.9,7.76,17.77,90.0-100.0
90.0,1310.0,-1.09,-2.34,8.2,-3.74,1.42,1.12,17.78,90.0-100.0
90.0,0.0,-4.13,-6.31,7.29,-5.21,13.98,-6.16,17.77,90.0-100.0
90.0,2418.0,2.14,0.59,11.14,0.76,-0.43,-1.7,17.78,90.0-100.0
90.0,0.0,-1.9,-0.93,8.91,-1.93,-1.72,0.59,17.79,90.0-100.0
90.0,925.0,-3.62,-6.66,6.92,-4.35,17.29,-7.39,17.77,90.0-100.0
90.0,1681.0,2.06,-1.64,11.38,-1.99,2.58,-4.16,17.76,90.0-100.0
90.0,1879.0,-0.05,7.25,13.91,6.51,-16.85,6.19,17.78,90.0-100.0
90.0,1832.0,-1.73,-6.65,6.75,-4.09,15.44,-4.91,17.76,90.0-100.0
90.0,0.0,2.12,-3.77,11.42,-5.39,1.2,-3.9,17.77,90.0-100.0
90.0,2003.0,-1.12,6.95,13.34,6.08,-12.83,5.78,17.75,90.0-100.0
90.0,1397.0,-0.31,4.2,9.27,5.01,-2.76,5.65,17.76,90.0-100.0
90.0,274.0,0.82,-4.93,9.37,-6.19,3.59,-5.99,17.78,90.0-100.0
90.0,2409.0,-2.12,5.9,13.31,5.79,-8.35,3.03,17.76,90.0-100.0
90.0,511.0,1.33,5.68,11.11,7.12,-6.1,5.73,17.78,90.0-100.0
90.0,863.0,1.94,-4.8,6.73,-4.46,3.11,-1.95,17.77,90.0-100.0
90.0,922.0,-0.22,4.1,11.72,4.4,-2.62,0.92,17.79,90.0-100.0
90.0,1670.0,1.83,6.98,12.71,7.43,-11.41,7.16,17.78,90.0-100.0
90.0,1649.0,-1.03,-2.34,8.05,-3.82,-0.95,0.8,17.75,90.0-100.0
90.0,0.0,-5.46,-6.82,7.75,-5.48,15.43,-6.65,17.79,90.0-100.0
90.0,2928.0,2.12,7.76,13.02,7.21,-14.92,7.45,17.78,90.0-100.0
90.0,245.0,-2.9,-0.2,9.14,-1.84,-3.66,2.16,17.77,90.0-100.0
90.0,613.0,-2.92,-7.36,6.51,-4.25,17.94,-6.49,17.74,90.0-100.0
90.0,2240.0,2.57,-2.44,11.45,-2.89,2.75,-4.72,17.79,90.0-100.0
90.0,1023.0,-1.83,2.65,8.19,3.66,-2.46,3.5,17.78,90.0-100.0
90.0,841.0,0.74,-7.06,5.38,-4.25,16.11,-5.29,17.77,90.0-100.0
90.0,0.0,1.36,-4.46,10.73,-6.08,1.59,-5.85,17.78,90.0-100.0
90.0,2011.0,-2.25,6.5,13.62,5.73,-10.33,4.81,17.79,90.0-100.0
90.0,1120.0,2.31,-6.35,6.17,-4.78,8.64,-2.39,17.79,90.0-100.0
90.0,0.0,-0.08,-5.35,7.81,-6.48,6.39,-6.22,17.79,90.0-100.0
90.0,2928.0,-1.52,4.96,12.35,4.4,-3.37,2.24,17.77,90.0-100.0
90.0,118.0,1.61,6.35,12.19,6.95,-9.02,6.45,17.78,90.0-100.0
90.0,1661.0,-3.2,-6.34,7.5,-6.29,10.38,-7.91,17.76,90.0-100.0
90.0,1849.0,0.88,2.67,11.25,3.08,-0.73,-0.63,17.79,90.0-100.0
90.0,1792.0,2.6,7.22,12.42,7.75,-12.24,6.68,17.77,90.0-100.0
90.0,1413.0,-2.12,-1.48,9.16,-2.9,-2.75,0.92,17.78,90.0-100.0
90.0,0.0,2.21,0.22,11.07,0.27,1.56,-1.69,17.77,90.0-100.0
90.0,1797.0,1.62,7.21,13.36,6.8,-17.0,7.23,17.8,90.0-100.0
90.0,1609.0,-2.12,1.17,8.46,0.76,-2.72,3.56,17.78,90.0-100.0
90.0,0.0,-2.09,-6.66,6.14,-3.97,17.65,-5.36,17.78,90.0-100.0
90.0,2299.0,0.03,7.95,13.14,6.63,-15.46,6.03,17.79,90.0-100.0
90.0,0.0,-1.36,2.97,8.91,3.4,-3.77,3.88,17.79,90.0-100.0
90.0,1344.0,1.96,-7.18,5.57,-4.92,12.22,-4.89,17.79,90.0-100.0
90.0,1362.0,1.09,-4.41,9.16,-5.53,4.2,-6.83,17.78,90.0-100.0
90.0,2270.0,0.28,5.54,9.7,7.26,-3.75,5.79,17.77,90.0-100.0
90.0,1008.0,3.25,-5.95,5.63,-5.5,7.34,-2.63,17.77,90.0-100.0
90.0,0.0,-2.64,-6.12,7.99,-6.19,7.54,-7.03,17.79,90.0-100.0
90.0,2078.0,-0.11,3.73,11.59,3.0,-2.7,1.78,17.78,90.0-100.0
90.0,624.0,0.89,-4.43,7.23,-5.83,0.95,-0.25,17.79,90.0-100.0
90.0,657.0,-5.03,-6.23,7.34,-4.38,13.27,-7.01,17.78,90.0-100.0
90.0,2122.0,1.59,1.49,10.82,1.35,0.9,-1.43,17.77,90.0-100.0
90.0,320.0,2.01,7.25,13.59,7.5,-15.95,7.19,17.77,90.0-100.0
90.0,695.0,-5.39,-7.12,7.63,-4.08,17.46,-6.72,17.77,90.0-100.0
90.0,998.0,2.74,-0.96,11.54,-1.56,2.17,-2.97,17.76,90.0-100.0
90.0,916.0,0.93,7.98,13.17,7.4,-16.21,7.38,17.75,90.0-100.0
90.0,1517.0,-2.25,1.6,8.88,0.97,-3.48,3.87,17.79,90.0-100.0
90.0,0.0,2.15,-2.92,11.48,-4.49,1.85,-4.51,17.76,90.0-100.0
90.0,2929.0,-0.18,7.07,13.55,5.82,-14.79,5.42,17.79,90.0-100.0
90.0,763.0,-0.35,3.94,8.81,5.34,-3.27,4.57,17.78,90.0-100.0
90.0,228.0,2.49,-6.63,5.04,-5.25,11.63,-4.65,17.76,90.0-100.0
90.0,2555.0,-0.79,6.02,13.12,4.69,-10.64,3.11,17.78,90.0-100.0
90.0,1494.0,-0.04,5.54,10.32,7.3,-4.11,5.2,17.77,90.0-100.0
90.0,928.0,2.98,-6.04,6.23,-6.26,4.73,-2.22,17.77,90.0-100.0
90.0,0.0,-2.7,-5.64,7.47,-5.1,8.83,-6.95,17.75,90.0-100.0
90.0,1713.0,0.92,6.9,12.36,8.6,-9.05,7.48,17.76,90.0-100.0
90.0,1869.0,0.39,-3.89,7.41,-5.39,1.14,-0.18,17.75,90.0-100.0
90.0,0.0,-5.91,-6.36,7.71,-4.72,13.85,-7.01,17.76,90.0-100.0
90.0,2928.0,2.05,0.73,10.97,0.44,0.24,-1.32,17.76,90.0-100.0
90.0,0.0,-2.2,-1.49,9.47,-3.42,-4.3,1.23,17.77,90.0-100.0
90.0,1249.0,-4.73,-7.45,7.09,-3.97,18.28,-7.01,17.74,90.0-100.0
90.0,965.0,3.11,-1.28,11.36,-2.07,3.04,-3.9,17.74,90.0-100.0
90.0,2106.0,0.1,7.95,14.01,6.75,-17.09,6.55,17.74,90.0-100.0
90.0,899.0,-1.06,-6.74,5.48,-3.15,17.24,-5.27,17.75,90.0-100.0
90.0,0.0,2.44,-4.48,11.36,-6.58,1.33,-5.82,17.74,90.0-100.0
90.0,2463.0,-2.28,7.27,13.89,6.14,-12.53,5.74,17.76,90.0-100.0
90.0,885.0,0.27,5.31,10.02,6.77,-3.11,6.92,17.77,90.0-100.0
90.0,147.0,-0.31,-5.99,8.26,-7.01,5.0,-6.92,17.78,90.0-100.0
90.0,2163.0,-1.8,5.45,12.39,5.05,-5.42,2.33,17.72,90.0-100.0
90.0,1075.0,2.11,6.86,12.33,7.5,-8.61,6.86,17.78,90.0-100.0
90.0,1142.0,0.1,-3.5,8.75,-3.99,-1.36,-0.47,17.78,90.0-100.0
90.0,0.0,1.16,2.63,10.53,2.83,3.07,-1.12,17.77,90.0-100.0
90.0,2223.0,2.74,7.63,14.11,7.53,-16.74,8.08,17.75,90.0-100.0
90.0,705.0,-3.51,-0.18,8.76,-1.99,-3.68,2.3,17.77,90.0-100.0
90.0,0.0,-3.74,-7.36,6.01,-3.51,19.96,-6.63,17.77,90.0-100.0
90.0,2928.0,0.02,8.83,14.33,7.12,-18.89,7.7,17.77,90.0-100.0
90.0,0.0,-1.44,3.29,7.93,3.14,-3.34,4.86,17.76,90.0-100.0
90.0,1162.0,2.87,-8.13,5.12,-4.09,14.6,-4.62,17.76,90.0-100.0
90.0,1872.0,1.86,-5.87,8.21,-6.99,3.11,-7.99,17.75,90.0-100.0
90.0,1855.0,1.63,6.56,10.21,8.51,-4.82,6.71,17.77,90.0-100.0
90.0,1942.0,3.65,-5.73,6.14,-4.17,3.19,-1.4,17.77,90.0-100.0
90.0,0.0,-5.04,-7.3,7.04,-7.25,11.83,-8.98,17.77,90.0-100.0
90.0,2928.0,2.61,2.51,10.07,2.57,2.07,0.24,17.77,90.0-100.0
90.0,145.0,-1.97,-1.88,8.35,-3.38,-3.94,2.04,17.77,90.0-100.0
90.0,80.0,-7.17,-7.48,6.44,-4.51,21.3,-7.7,17.77,90.0-100.0
90.0,2320.0,4.01,-1.94,11.54,-2.74,4.27,-3.87,17.76,90.0-100.0
90.0,1875.0,-0.75,8.8,15.38,6.43,-20.78,7.21,17.76,90.0-100.0
90.0,818.0,-0.64,-7.77,4.86,-2.8,20.63,-6.9,17.76,90.0-100.0
90.0,0.0,3.15,-5.23,10.84,-7.38,2.98,-7.39,17.78,90.0-100.0
90.0,2659.0,-3.59,7.87,14.5,6.14,-12.21,4.75,17.77,90.0-100.0
90.0,0.0,2.08,5.99,10.36,7.24,-5.23,7.18,17.77,90.0-100.0
90.0,112.0,-0.38,-7.13,7.4,-8.44,5.07,-8.29,17.77,90.0-100.0
90.0,2323.0,-0.09,5.16,10.53,4.51,-0.14,2.17,17.78,90.0-100.0
90.0,1795.0,2.34,8.07,14.1,8.52,-13.89,8.55,17.76,90.0-100.0
90.0,1031.0,-2.16,-2.61,8.53,-4.43,-5.55,1.01,17.77,90.0-100.0
90.0,0.0,3.91,-0.05,10.65,-0.98,2.62,-2.68,17.78,90.0-100.0
90.0,2006.0,1.61,9.14,15.14,7.85,-21.42,7.79,17.78,90.0-100.0
90.0,965.0,-2.87,1.74,7.92,0.97,-4.21,3.18,17.77,90.0-100.0
90.0,0.0,-0.1,-7.85,4.12,-3.33,20.75,-7.16,17.75,90.0-100.0
90.0,2928.0,-1.92,8.57,14.74,5.66,-17.64,6.25,17.75,90.0-100.0
90.0,1155.0,-0.88,5.2,9.24,6.94,-4.07,6.95,17.77,90.0-100.0
90.0,483.0,4.51,-7.54,5.4,-4.93,8.91,-2.24,17.77,90.0-100.0
90.0,9.0,-2.01,-6.99,7.58,-7.62,6.94,-7.27,17.77,90.0-100.0
90.0,2555.0,2.43,7.19,12.72,8.75,-8.35,9.06,17.78,90.0-100.0
90.0,1691.0,-0.17,-3.78,8.28,-4.19,-3.48,0.47,17.77,90.0-100.0
90.0,0.0,-8.11,-7.52,6.73,-5.38,19.36,-8.75,17.77,90.0-100.0
90.0,2935.0,4.29,-0.26,11.04,-0.62,5.0,-3.81,17.75,90.0-100.0
90.0,0.0,-3.89,0.64,8.12,-0.75,-5.36,2.25,17.76,90.0-100.0
90.0,1039.0,-2.3,-8.26,4.49,-3.48,23.31,-7.94,17.77,90.0-100.0
90.0,1086.0,4.52,-4.55,11.53,-6.75,1.8,-6.86,17.75,90.0-100.0
90.0,1351.0,-2.7,8.67,14.99,5.43,-15.64,6.43,17.76,90.0-100.0
90.0,1227.0,4.66,-7.7,4.04,-3.93,14.27,-4.33,17.77,90.0-100.0
90.0,0.0,-0.86,-7.06,8.0,-8.49,4.06,-8.32,17.75,90.0-100.0
90.0,2929.0,-1.14,5.21,11.6,4.04,-1.47,2.57,17.75,90.0-100.0
90.0,0.0,3.26,7.91,13.73,9.01,-14.21,8.9,17.77,90.0-100.0
90.0,1070.0,-7.02,-7.51,6.64,-5.59,17.12,-8.86,17.77,90.0-100.0
90.0,2047.0,3.72,1.16,10.51,1.29,4.71,-2.05,17.75,90.0-100.0
90.0,2342.0,3.03,8.83,14.6,7.44,-21.55,8.37,17.77,90.0-100.0
90.0,704.0,-3.68,1.77,7.93,1.35,-5.05,3.33,17.78,90.0-100.0
90.0,0.0,3.94,-2.72,11.75,-4.06,4.24,-5.53,17.78,90.0-100.0
90.0,2928.0,-1.53,8.37,15.92,4.94,-19.9,6.94,17.77,90.0-100.0
90.0,0.0,-1.25,4.64,8.69,5.56,-3.57,6.31,17.8,90.0-100.0
90.0,1255.0,3.56,-7.17,4.46,-3.84,12.13,-3.29,17.77,90.0-100.0
90.0,2521.0,-3.56,6.72,13.65,5.58,-8.04,4.74,17.78,90.0-100.0
90.0,2182.0,2.46,6.62,11.85,7.82,-8.16,8.23,17.75,90.0-100.0
90.0,790.0,1.07,-4.99,7.49,-4.16,0.75,-0.91,17.77,90.0-100.0
90.0,0.0,-6.3,-7.49,6.96,-6.54,15.56,-8.86,17.77,90.0-100.0
90.0,2403.0,4.1,7.98,13.95,7.62,-17.98,7.94,17.75,90.0-100.0
90.0,384.0,-3.53,-1.01,8.87,-1.32,-5.74,1.98,17.78,90.0-100.0
90.0,343.0,-4.18,-7.88,5.09,-4.32,22.35,-7.8,17.8,90.0-100.0
90.0,2928.0,4.18,-2.49,12.12,-3.85,4.13,-4.72,17.77,90.0-100.0
90.0,1139.0,-3.27,3.64,7.37,4.02,-2.29,5.32,17.77,90.0-100.0
90.0,409.0,2.27,-8.19,4.03,-4.25,17.84,-5.62,17.77,90.0-100.0
90.0,217.0,2.06,-6.63,9.76,-9.02,1.54,-7.47,17.76,90.0-100.0
90.0,1742.0,-3.19,7.39,12.65,5.76,-5.84,3.88,17.75,90.0-100.0
90.0,272.0,3.31,-6.26,6.07,-3.71,4.2,-2.42,17.77,90.0-100.0
90.0,383.0,-5.69,-7.5,6.6,-7.6,12.16,-9.39,17.78,90.0-100.0
90.0,2927.0,2.04,2.6,10.78,3.47,4.15,-0.8,17.78,90.0-100.0
90.0,951.0,5.55,8.28,14.55,7.15,-22.54,9.24,17.77,90.0-100.0
90.0,896.0,-5.73,-8.63,5.51,-5.35,24.43,-8.75,17.76,90.0-100.0
90.0,540.0,5.13,-2.15,11.92,-2.52,5.48,-4.16,17.79,90.0-100.0
90.0,1742.0,-1.86,9.53,16.32,4.94,-22.1,8.06,17.77,90.0-100.0
90.0,882.0,-2.14,5.03,8.16,6.28,-2.4,6.61,17.78,90.0-100.0
90.0,0.0,1.97,-6.69,10.07,-9.57,0.06,-8.03,17.78,90.0-100.0
90.0,2928.0,-3.71,7.39,13.27,5.14,-7.13,4.04,17.76,90.0-100.0
90.0,1190.0,3.69,7.74,12.53,9.45,-9.14,8.28,17.77,90.0-100.0
90.0,1127.0,-1.41,-4.22,8.42,-4.14,-3.42,-0.74,17.77,90.0-100.0
90.0,0.0,2.96,2.28,10.63,2.83,5.61,-1.24,17.75,90.0-100.0
90.0,1121.0,5.05,8.74,15.41,6.98,-26.17,9.47,17.77,90.0-100.0
90.0,1398.0,-4.78,1.47,7.1,1.64,-5.16,4.46,17.78,90.0-100.0
90.0,0.0,0.45,-8.75,2.51,-3.68,27.05,-7.16,17.78,90.0-100.0
90.0,2928.0,-2.81,9.52,16.32,5.06,-22.37,8.4,17.75,90.0-100.0
90.0,994.0,-2.09,5.95,8.72,8.08,-1.86,7.38,17.78,90.0-100.0
90.0,976.0,4.42,-7.74,5.08,-4.37,9.06,-4.04,17.76,90.0-100.0
90.0,656.0,-3.21,-7.61,7.27,-9.28,8.18,-9.39,17.77,90.0-100.0
90.0,1280.0,5.4,7.77,12.87,8.98,-13.18,8.29,17.75,90.0-100.0
90.0,1091.0,-2.67,-2.87,7.9,-2.92,-3.04,-0.66,17.78,90.0-100.0
90.0,97.0,-7.89,-8.64,5.51,-6.72,24.98,-10.49,17.75,90.0-100.0
90.0,2927.0,5.41,-1.68,12.81,-1.82,3.81,-3.78,17.79,90.0-100.0
90.0,387.0,-4.58,1.62,6.84,2.41,-4.97,4.59,17.76,90.0-100.0
90.0,662.0,1.9,-8.93,2.38,-3.65,26.86,-6.78,17.79,90.0-100.0
90.0,72.0,2.68,-5.93,11.35,-8.21,2.3,-6.52,17.77,90.0-100.0
90.0,1957.0,-4.64,8.05,14.57,5.06,-12.19,5.93,17.79,90.0-100.0
90.0,1177.0,3.9,-7.22,5.22,-3.96,7.26,-3.06,17.79,90.0-100.0
90.0,220.0,-4.55,-7.74,7.36,-9.15,10.28,-9.21,17.78,90.0-100.0
90.0,2928.0,1.58,4.18,10.8,4.6,3.26,0.05,17.77,90.0-100.0
90.0,370.0,6.28,8.28,14.78,6.95,-23.13,8.67,17.76,90.0-100.0
90.0,868.0,-6.96,-8.5,4.94,-6.22,26.67,-10.23,17.75,90.0-100.0
90.0,320.0,5.43,-1.93,12.85,-2.83,4.5,-4.59,17.77,90.0-100.0
90.0,1523.0,-1.38,9.89,17.05,5.29,-27.19,8.48,17.77,90.0-100.0
90.0,310.0,-2.96,4.68,7.69,6.57,-0.81,6.72,17.76,90.0-100.0
90.0,101.0,2.39,-6.79,10.5,-10.05,1.07,-7.16,17.78,90.0-100.0
90.0,2928.0,-4.58,7.79,13.99,5.58,-9.61,5.39,17.77,90.0-100.0
90.0,833.0,4.64,7.18,12.13,9.2,-10.35,9.12,17.76,90.0-100.0
90.0,1296.0,-1.14,-3.86,7.79,-2.98,-1.76,-0.45,17.77,90.0-100.0
90.0,647.0,3.37,3.21,10.48,4.47,6.65,-0.86,17.76,90.0-100.0
90.0,2928.0,5.13,8.86,15.82,6.56,-27.53,8.92,17.78,90.0-100.0
90.0,402.0,-5.35,1.13,6.74,1.66,-5.39,2.94,17.76,90.0-100.0
90.0,774.0,0.67,-8.97,1.82,-3.8,28.73,-8.0,17.76,90.0-100.0
90.0,2929.0,-3.15,9.57,16.97,4.47,-25.31,8.69,17.76,90.0-100.0
90.0,1520.0,-1.78,6.17,8.37,9.12,-0.41,8.13,17.77,90.0-100.0
90.0,1279.0,4.6,-7.92,4.74,-5.22,9.52,-3.41,17.78,90.0-100.0
90.0,69.0,-5.53,-8.03,8.07,-9.79,8.82,-8.9,17.77,90.0-100.0
90.0,2545.0,6.07,7.67,13.23,9.15,-15.11,8.9,17.76,90.0-100.0
90.0,147.0,-3.95,-2.79,8.53,-2.45,-5.14,0.05,17.75,90.0-100.0
90.0,0.0,-6.62,-8.8,4.37,-5.32,28.47,-10.35,17.77,90.0-100.0
90.0,2930.0,6.18,-2.02,13.36,-2.8,3.46,-5.0,17.76,90.0-100.0
90.0,262.0,-4.71,3.33,5.51,5.12,-2.73,4.59,17.76,90.0-100.0
90.0,551.0,3.69,-8.89,2.02,-3.91,25.02,-6.94,17.76,90.0-100.0
90.0,336.0,2.29,-6.95,10.48,-10.56,-0.29,-7.56,17.77,90.0-100.0
90.0,1612.0,-3.52,7.92,12.81,5.44,-7.02,5.18,17.75,90.0-100.0
90.0,0.0,2.38,-6.28,6.35,-4.61,3.92,-2.2,17.75,90.0-100.0
90.0,511.0,-7.8,-7.99,6.7,-8.63,17.36,-10.02,17.76,90.0-100.0
90.0,2928.0,4.53,2.07,11.1,2.83,5.11,-1.76,17.76,90.0-100.0
90.0,1474.0,3.94,8.67,16.45,6.13,-29.63,8.87,17.78,90.0-100.0
90.0,590.0,-3.9,-9.14,3.54,-4.58,30.24,-9.85,17.77,90.0-100.0
90.0,592.0,6.52,-4.28,13.43,-5.97,1.46,-5.88,17.76,90.0-100.0
90.0,1891.0,-4.0,10.4,16.17,5.99,-22.05,8.58,17.76,90.0-100.0
90.0,0.0,-0.9,6.84,9.29,9.67,-1.62,8.49,17.79,90.0-100.0
90.0,1017.0,-1.54,-7.5,9.08,-10.27,3.71,-7.87,17.78,90.0-100.0
90.0,2928.0,-1.26,5.92,11.86,4.21,-1.33,3.12,17.76,90.0-100.0
90.0,897.0,5.87,8.05,14.26,8.98,-20.25,9.88,17.77,90.0-100.0
90.0,734.0,-4.5,-1.2,7.02,-1.79,-4.18,0.42,17.73,90.0-100.0
90.0,474.0,6.2,-0.44,12.48,-0.51,6.07,-4.07,17.77,90.0-100.0
90.0,2199.0,0.8,9.89,17.34,6.14,-30.95,8.58,17.77,90.0-100.0
90.0,0.0,-3.56,3.42,6.14,5.38,-1.63,3.79,17.76,90.0-100.0
90.0,677.0,4.88,-8.99,2.12,-3.58,22.09,-6.25,17.76,90.0-100.0
90.0,2928.0,-4.52,8.78,14.97,5.5,-15.59,7.03,17.75,90.0-100.0
90.0,832.0,2.36,7.22,11.32,9.96,-7.39,9.12,17.74,90.0-100.0
90.0,1262.0,1.21,-5.55,6.65,-4.66,2.0,-0.66,17.77,90.0-100.0
90.0,592.0,-8.17,-8.21,6.92,-7.83,19.07,-9.24,17.78,90.0-100.0
90.0,1647.0,5.01,8.25,15.2,7.75,-22.75,9.39,17.76,90.0-100.0
90.0,653.0,-4.8,-0.51,7.15,-0.34,-5.65,1.73,17.75,90.0-100.0
90.0,549.0,-4.13,-8.19,3.9,-3.56,28.64,-9.39,17.74,90.0-100.0
90.0,2928.0,4.79,-3.7,13.06,-6.02,1.98,-6.14,17.77,90.0-100.0
90.0,352.0,-2.34,3.93,7.0,5.23,-2.96,5.07,17.78,90.0-100.0
90.0,1251.0,3.11,-7.88,3.33,-3.71,18.87,-5.5,17.76,90.0-100.0
90.0,592.0,0.79,-6.82,9.06,-9.62,4.46,-7.48,17.76,90.0-100.0
90.0,1927.0,-2.42,6.57,13.39,5.18,-6.85,4.74,17.75,90.0-100.0
90.0,928.0,2.08,-5.64,5.92,-3.91,4.59,-1.14,17.75,90.0-100.0
90.0,0.0,-4.81,-7.38,6.5,-7.25,14.11,-8.46,17.77,90.0-100.0
90.0,2928.0,2.3,2.47,11.1,2.94,3.1,-0.4,17.76,90.0-100.0
90.0,0.0,3.8,8.19,14.46,7.61,-21.35,8.28,17.75,90.0-100.0
90.0,733.0,-6.07,-7.75,5.87,-4.57,23.56,-9.19,17.77,90.0-100.0
90.0,1404.0,4.11,-1.5,12.0,-2.34,3.86,-4.02,17.78,90.0-100.0
90.0,2599.0,-0.17,8.87,15.29,6.3,-22.03,7.73,17.76,90.0-100.0
90.0,1371.0,-1.97,3.29,8.12,3.64,-4.5,5.56,17.75,90.0-100.0
90.0,0.0,2.68,-4.92,11.06,-7.8,3.45,-6.03,17.77,90.0-100.0
90.0,2928.0,-3.04,7.54,15.2,5.27,-13.92,5.64,17.76,90.0-100.0
90.0,0.0,0.48,5.66,10.44,6.65,-5.91,6.65,17.77,90.0-100.0
90.0,1249.0,2.36,-5.97,6.05,-3.71,6.09,-3.04,17.76,90.0-100.0
90.0,2558.0,-1.84,5.23,12.97,5.2,-3.43,1.7,17.76,90.0-100.0
90.0,1870.0,3.8,7.04,12.36,7.91,-12.07,7.38,17.75,90.0-100.0
90.0,734.0,-0.88,-3.05,7.84,-2.83,-0.96,-0.07,17.75,90.0-100.0
90.0,0.0,-5.87,-7.53,6.39,-6.15,18.62,-8.22,17.74,90.0-100.0
90.0,2929.0,3.64,7.91,14.04,6.68,-20.14,8.64,17.75,90.0-100.0
