Speed,Voice,Acceleration X,Acceleration Y,Acceleration Z,Gyro X,Gyro Y,Gyro Z,Temperature,Speed_Range
90.0,2384.0,-2.08,-5.0,7.88,-10.58,-5.76,-6.9,27.81,90.0-100.0
90.0,1680.0,-3.82,-5.04,6.55,-11.62,19.92,-9.48,27.82,90.0-100.0
90.0,1261.0,-0.27,5.84,10.31,12.9,7.45,8.06,27.81,90.0-100.0
90.0,2352.0,-1.45,-5.89,7.14,-11.59,-0.92,-7.55,27.81,90.0-100.0
90.0,1104.0,-3.48,-4.66,7.1,-11.17,18.65,-7.84,27.81,90.0-100.0
90.0,1583.0,-0.18,5.63,10.34,13.3,7.09,8.24,27.81,90.0-100.0
90.0,910.0,4.48,5.31,15.71,8.83,-27.67,11.25,27.79,90.0-100.0
90.0,912.0,-4.94,-5.41,5.14,-10.67,24.54,-11.41,27.78,90.0-100.0
90.0,2095.0,1.1,2.41,11.05,9.73,12.92,1.98,27.79,90.0-100.0
90.0,223.0,3.66,6.98,17.23,9.5,-33.9,12.54,27.78,90.0-100.0
90.0,1517.0,-2.36,0.78,7.92,-2.2,-13.54,1.19,27.79,90.0-100.0
90.0,1104.0,0.9,-2.43,10.33,-0.33,16.99,-4.97,27.79,90.0-100.0
90.0,1796.0,0.58,6.6,13.29,10.72,-14.46,10.73,27.79,90.0-100.0
90.0,240.0,2.76,5.39,14.86,5.75,-27.9,11.69,27.77,90.0-100.0
90.0,2110.0,-3.09,-1.65,5.8,-5.36,-2.45,-1.02,27.79,90.0-100.0
90.0,240.0,1.04,-0.08,11.68,3.66,12.38,-0.75,27.79,90.0-100.0
90.0,2768.0,1.84,6.74,15.03,8.52,-26.12,11.75,27.79,90.0-100.0
90.0,0.0,2.07,4.83,13.24,5.26,-25.96,9.34,27.79,90.0-100.0
90.0,2480.0,-3.02,-1.89,4.77,-4.64,2.46,-3.57,27.8,90.0-100.0
90.0,0.0,0.83,-0.08,12.5,3.05,8.51,-2.21,27.8,90.0-100.0
90.0,2586.0,1.92,6.34,15.37,8.05,-27.02,10.59,27.8,90.0-100.0
90.0,729.0,2.32,5.24,13.82,5.81,-27.69,10.77,27.8,90.0-100.0
90.0,2247.0,-2.89,-0.67,4.83,-2.32,-0.05,0.38,27.81,90.0-100.0
90.0,1618.0,0.5,-1.47,11.59,0.65,13.19,-3.04,27.8,90.0-100.0
90.0,2559.0,1.49,5.51,14.86,7.73,-20.81,9.98,27.79,90.0-100.0
90.0,1872.0,2.96,6.3,15.77,6.8,-34.16,13.17,27.82,90.0-100.0
90.0,1846.0,-1.9,1.46,6.25,1.37,-6.57,3.39,27.82,90.0-100.0
90.0,1780.0,-0.72,-3.82,9.36,-3.35,19.37,-8.51,27.8,90.0-100.0
90.0,2926.0,1.47,3.4,14.21,6.3,-8.05,3.85,27.82,90.0-100.0
90.0,2748.0,2.46,6.76,16.41,7.35,-36.35,12.24,27.8,90.0-100.0
90.0,1165.0,0.66,3.78,10.07,4.5,-18.82,7.77,27.8,90.0-100.0
90.0,1662.0,-2.44,-6.15,6.57,-6.87,27.92,-11.58,27.82,90.0-100.0
90.0,1535.0,0.77,-0.09,13.02,1.92,5.47,-0.81,27.81,90.0-100.0
90.0,2645.0,1.97,5.79,15.56,7.44,-26.89,11.17,27.8,90.0-100.0
90.0,720.0,2.34,6.13,14.85,6.72,-32.04,12.85,27.8,90.0-100.0
90.0,1936.0,-2.94,-6.77,5.46,-8.98,31.26,-12.44,27.79,90.0-100.0
90.0,2364.0,-0.93,-3.68,9.45,-3.15,19.0,-7.98,27.8,90.0-100.0
90.0,2176.0,1.74,3.04,14.65,5.52,-9.42,3.72,27.8,90.0-100.0
90.0,1397.0,2.28,6.66,16.23,7.55,-35.84,12.19,27.79,90.0-100.0
90.0,2471.0,-2.12,-5.43,4.31,-8.89,24.13,-10.56,27.8,90.0-100.0
90.0,1969.0,-2.75,-6.58,6.18,-7.54,30.36,-12.71,27.8,90.0-100.0
90.0,1119.0,0.17,-1.25,12.24,0.1,9.3,-3.49,27.81,90.0-100.0
90.0,2927.0,2.28,4.86,15.55,6.74,-22.16,8.88,27.78,90.0-100.0
90.0,0.0,-2.96,-2.11,3.46,-4.4,10.9,-2.58,27.8,90.0-100.0
90.0,2364.0,-2.45,-6.39,5.11,-9.37,29.82,-11.43,27.8,90.0-100.0
90.0,1874.0,-2.04,-5.27,7.69,-5.42,25.38,-10.21,27.82,90.0-100.0
90.0,2122.0,1.32,0.81,14.11,2.79,-1.35,0.21,27.79,90.0-100.0
90.0,1445.0,-1.15,1.98,6.18,2.67,-5.97,3.98,27.8,90.0-100.0
90.0,2793.0,-2.56,-3.78,3.47,-6.76,17.52,-7.25,27.8,90.0-100.0
90.0,1827.0,-2.73,-6.85,5.61,-8.93,31.97,-13.73,27.81,90.0-100.0
90.0,1682.0,-1.07,-3.72,9.7,-3.39,18.41,-8.26,27.82,90.0-100.0
90.0,2928.0,1.58,5.54,13.07,6.56,-27.47,11.26,27.79,90.0-100.0
90.0,511.0,-2.41,0.21,4.57,-0.39,1.5,1.77,27.8,90.0-100.0
90.0,2641.0,-2.13,-5.15,3.91,-8.78,23.06,-8.64,27.81,90.0-100.0
90.0,315.0,-2.9,-6.74,6.11,-8.06,31.5,-12.45,27.8,90.0-100.0
90.0,2933.0,2.21,6.85,16.18,7.84,-36.8,13.53,27.78,90.0-100.0
90.0,1337.0,0.89,4.38,10.41,5.4,-19.72,8.88,27.78,90.0-100.0
90.0,1648.0,-3.14,-1.29,3.7,-2.93,8.25,-2.11,27.79,90.0-100.0
90.0,1720.0,-2.08,-6.11,4.66,-9.19,27.64,-11.8,27.81,90.0-100.0
90.0,2000.0,2.4,4.82,15.57,6.62,-22.38,7.86,27.8,90.0-100.0
90.0,1974.0,2.02,6.72,15.7,7.46,-35.93,12.97,27.78,90.0-100.0
90.0,348.0,-0.13,2.98,7.84,3.67,-11.91,6.64,27.79,90.0-100.0
90.0,1697.0,-2.99,-2.76,3.26,-5.64,14.09,-4.12,27.8,90.0-100.0
90.0,277.0,1.21,0.47,13.81,1.92,0.18,0.23,27.77,90.0-100.0
90.0,2165.0,2.56,5.79,15.88,7.27,-29.4,11.02,27.81,90.0-100.0
90.0,327.0,1.76,6.34,14.56,7.23,-32.02,12.56,27.8,90.0-100.0
90.0,1661.0,-1.41,1.65,5.67,1.86,-4.08,3.63,27.8,90.0-100.0
90.0,1310.0,-1.61,-4.1,9.11,-4.09,20.41,-9.12,27.78,90.0-100.0
90.0,928.0,1.86,2.01,15.03,3.86,-8.34,2.49,27.79,90.0-100.0
90.0,1806.0,2.5,6.25,16.09,7.47,-34.65,11.9,27.81,90.0-100.0
90.0,0.0,1.4,5.41,12.47,6.86,-25.57,10.89,27.79,90.0-100.0
90.0,1201.0,-2.34,-6.99,5.74,-8.44,32.57,-13.02,27.79,90.0-100.0
90.0,151.0,-0.84,-2.51,10.82,-1.58,14.73,-5.68,27.78,90.0-100.0
90.0,2927.0,2.12,3.83,15.49,5.75,-15.97,6.29,27.81,90.0-100.0
90.0,579.0,2.69,6.45,16.17,7.14,-37.58,13.2,27.79,90.0-100.0
90.0,1431.0,-2.42,-5.77,4.61,-9.83,25.98,-10.73,27.78,90.0-100.0
90.0,962.0,-1.97,-6.7,6.55,-7.74,29.76,-12.8,27.79,90.0-100.0
90.0,1427.0,0.12,-0.79,12.64,0.88,7.65,-3.34,27.79,90.0-100.0
90.0,2068.0,1.99,5.15,15.97,7.01,-24.01,8.35,27.8,90.0-100.0
90.0,0.0,-3.39,-1.91,3.15,-4.09,12.49,-3.6,27.79,90.0-100.0
90.0,1254.0,-2.34,-6.71,5.29,-10.12,30.17,-12.56,27.8,90.0-100.0
90.0,624.0,-1.52,-5.63,7.65,-5.82,25.38,-10.5,27.78,90.0-100.0
90.0,2924.0,0.98,1.2,13.87,3.63,-0.34,1.05,27.79,90.0-100.0
90.0,0.0,-1.34,2.02,6.24,3.21,-5.27,5.25,27.77,90.0-100.0
90.0,1523.0,-3.34,-3.4,3.37,-6.44,18.82,-6.12,27.79,90.0-100.0
90.0,207.0,-2.34,-7.26,5.77,-10.06,31.79,-13.5,27.78,90.0-100.0
90.0,885.0,-0.78,-3.95,9.48,-3.24,19.4,-8.39,27.78,90.0-100.0
90.0,2190.0,2.62,5.11,12.89,5.75,-28.86,10.56,27.79,90.0-100.0
90.0,0.0,-2.86,0.61,4.26,0.68,3.35,1.27,27.78,90.0-100.0
90.0,2218.0,-3.1,-4.83,4.07,-8.63,23.95,-9.45,27.78,90.0-100.0
90.0,192.0,-1.8,-7.28,6.17,-9.37,30.43,-13.11,27.79,90.0-100.0
90.0,1350.0,2.09,6.52,16.38,6.62,-38.08,13.21,27.79,90.0-100.0
90.0,578.0,1.56,3.68,10.25,4.57,-20.0,8.99,27.78,90.0-100.0
90.0,1109.0,-3.48,-0.85,3.03,-2.02,10.72,-1.46,27.8,90.0-100.0
90.0,267.0,-2.9,-6.12,4.98,-9.88,28.31,-11.64,27.81,90.0-100.0
90.0,1613.0,1.67,5.62,16.1,7.73,-24.12,9.14,27.79,90.0-100.0
90.0,1560.0,2.89,6.19,15.46,6.04,-37.33,12.45,27.8,90.0-100.0
90.0,0.0,-0.62,2.2,7.23,3.4,-8.93,5.4,27.79,90.0-100.0
90.0,877.0,-3.52,-2.76,2.93,-5.39,17.55,-5.6,27.79,90.0-100.0
90.0,319.0,1.48,1.7,14.11,4.36,-1.93,1.33,27.8,90.0-100.0
90.0,1488.0,1.44,6.61,16.47,8.07,-32.49,11.92,27.78,90.0-100.0
90.0,336.0,2.92,5.29,13.64,5.44,-31.85,11.72,27.77,90.0-100.0
90.0,1271.0,-2.51,-7.24,5.63,-10.01,32.65,-13.15,27.79,90.0-100.0
90.0,638.0,-0.49,-3.61,10.27,-3.06,17.11,-7.14,27.79,90.0-100.0
90.0,1701.0,1.99,3.85,15.01,6.94,-12.44,5.51,27.78,90.0-100.0
90.0,283.0,1.75,6.8,16.59,7.27,-37.77,12.91,27.8,90.0-100.0
90.0,0.0,-3.17,-5.1,4.3,-8.55,26.59,-10.42,27.79,90.0-100.0
90.0,955.0,-2.0,-6.87,6.46,-8.57,30.04,-13.02,27.82,90.0-100.0
90.0,691.0,0.56,-1.33,12.6,0.3,7.93,-3.45,27.81,90.0-100.0
90.0,1852.0,2.04,5.53,15.65,8.11,-22.47,8.93,27.8,90.0-100.0
90.0,0.0,-3.14,-1.91,2.95,-3.56,13.3,-3.22,27.78,90.0-100.0
90.0,965.0,-3.02,-6.3,5.2,-9.45,30.59,-11.95,27.79,90.0-100.0
90.0,915.0,-1.2,-5.6,7.87,-6.4,24.31,-10.45,27.79,90.0-100.0
90.0,1525.0,1.6,0.89,14.02,3.28,-1.26,0.78,27.78,90.0-100.0
90.0,1311.0,-0.81,1.35,6.28,1.83,-5.99,4.18,27.8,90.0-100.0
90.0,1138.0,-2.56,-3.71,2.96,-6.29,19.89,-6.84,27.78,90.0-100.0
90.0,1138.0,-3.24,-6.66,5.8,-8.84,32.84,-13.18,27.8,90.0-100.0
90.0,1257.0,-0.57,-3.79,9.94,-3.82,16.81,-7.93,27.81,90.0-100.0
90.0,2160.0,1.56,5.4,12.54,5.92,-27.14,10.77,27.8,90.0-100.0
90.0,0.0,-2.38,-0.2,4.48,-0.95,2.98,0.73,27.79,90.0-100.0
90.0,1703.0,-2.24,-5.15,3.71,-8.26,25.81,-9.48,27.8,90.0-100.0
90.0,1791.0,-2.85,-6.65,6.54,-8.03,30.94,-12.53,27.8,90.0-100.0
90.0,2413.0,1.49,7.0,16.25,7.96,-36.72,13.46,27.78,90.0-100.0
90.0,1055.0,1.03,3.82,9.64,4.42,-18.52,8.41,27.83,90.0-100.0
90.0,1714.0,-3.03,-1.68,3.21,-3.35,11.1,-2.43,27.78,90.0-100.0
90.0,1317.0,-2.79,-5.96,4.77,-8.98,30.3,-11.67,27.8,90.0-100.0
90.0,1525.0,2.4,5.51,15.79,7.96,-24.59,9.28,27.79,90.0-100.0
90.0,2085.0,1.37,6.81,15.47,7.33,-35.84,12.85,27.8,90.0-100.0
90.0,1167.0,0.0,1.92,6.9,2.31,-9.22,5.02,27.78,90.0-100.0
90.0,2926.0,-2.69,-3.36,2.84,-5.94,17.8,-5.71,27.79,90.0-100.0
90.0,592.0,1.97,1.01,14.35,2.97,-3.81,1.24,27.79,90.0-100.0
90.0,2799.0,2.23,6.67,15.91,8.83,-31.3,11.96,27.76,90.0-100.0
90.0,1644.0,1.44,5.98,13.47,6.33,-30.14,11.76,27.81,90.0-100.0
90.0,2332.0,-1.62,0.03,5.28,-0.6,-0.59,1.83,27.77,90.0-100.0
90.0,1745.0,-0.37,-3.63,10.17,-3.87,15.48,-7.42,27.78,90.0-100.0
90.0,1967.0,2.93,3.18,15.06,5.79,-12.64,4.87,27.78,90.0-100.0
90.0,2928.0,1.15,7.26,16.35,8.95,-35.45,13.17,27.78,90.0-100.0
90.0,179.0,1.52,4.28,10.58,4.48,-22.76,9.11,27.79,90.0-100.0
90.0,1655.0,-3.09,-6.36,6.7,-7.8,30.71,-12.63,27.79,90.0-100.0
90.0,1825.0,0.64,-1.91,12.44,-1.3,6.86,-3.98,27.82,90.0-100.0
90.0,2631.0,3.19,5.0,15.31,7.88,-20.97,8.54,27.77,90.0-100.0
90.0,1837.0,0.85,7.29,15.86,8.14,-35.52,13.57,27.78,90.0-100.0
90.0,1917.0,-2.79,-5.91,4.69,-8.58,30.98,-11.57,27.76,90.0-100.0
90.0,1762.0,-2.22,-5.45,7.81,-6.32,25.72,-10.89,27.81,90.0-100.0
90.0,2347.0,1.62,0.18,14.02,1.69,-1.32,-0.15,27.79,90.0-100.0
90.0,2315.0,2.57,6.2,15.75,8.33,-28.82,10.85,27.77,90.0-100.0
90.0,1139.0,-2.52,-3.74,3.01,-6.44,18.24,-6.38,27.8,90.0-100.0
90.0,2928.0,-3.21,-6.53,5.74,-8.67,32.97,-13.03,27.79,90.0-100.0
90.0,958.0,-1.05,-3.99,9.56,-4.2,18.2,-8.36,27.78,90.0-100.0
90.0,2927.0,2.37,2.18,14.91,4.34,-9.74,3.6,27.8,90.0-100.0
90.0,1137.0,-2.08,0.07,5.04,-0.8,0.65,1.51,27.78,90.0-100.0
90.0,2927.0,-2.12,-4.9,3.41,-7.94,24.44,-8.74,27.79,90.0-100.0
90.0,1660.0,-3.31,-6.5,6.45,-7.94,32.11,-12.53,27.8,90.0-100.0
90.0,1795.0,0.13,-2.33,11.64,-1.97,9.89,-5.07,27.81,90.0-100.0
90.0,2927.0,1.18,4.21,10.25,4.79,-20.35,8.87,27.78,90.0-100.0
90.0,557.0,-2.95,-1.63,3.79,-3.36,9.06,-2.0,27.78,90.0-100.0
90.0,2299.0,-2.34,-5.81,4.39,-8.84,29.2,-11.37,27.77,90.0-100.0
90.0,448.0,-2.56,-5.95,7.33,-6.95,27.78,-11.87,27.8,90.0-100.0
90.0,2928.0,1.26,7.04,15.51,8.08,-35.38,13.18,27.79,90.0-100.0
90.0,1370.0,0.11,2.57,7.58,3.05,-11.41,6.07,27.78,90.0-100.0
90.0,2547.0,-2.81,-3.05,2.91,-5.71,15.98,-4.79,27.78,90.0-100.0
90.0,935.0,-2.73,-6.37,5.38,-9.08,32.57,-12.41,27.78,90.0-100.0
90.0,2026.0,2.46,6.16,15.83,8.34,-30.11,11.43,27.78,90.0-100.0
90.0,1785.0,1.48,6.37,14.07,7.14,-31.11,12.27,27.8,90.0-100.0
90.0,666.0,-1.51,1.09,5.46,0.96,-2.79,2.9,27.8,90.0-100.0
90.0,2928.0,-2.23,-4.41,3.25,-7.74,21.22,-8.06,27.8,90.0-100.0
90.0,1423.0,2.06,2.39,15.28,4.42,-10.37,3.4,27.78,90.0-100.0
90.0,2557.0,2.24,6.68,16.0,7.88,-35.38,12.47,27.79,90.0-100.0
90.0,240.0,1.1,5.28,11.91,6.37,-23.98,10.31,27.77,90.0-100.0
90.0,1744.0,-2.9,-0.35,4.09,-1.7,4.54,0.18,27.79,90.0-100.0
90.0,1664.0,-0.23,-2.02,11.31,-1.2,12.11,-4.9,27.79,90.0-100.0
90.0,2373.0,2.45,4.07,15.75,5.95,-19.08,7.13,27.8,90.0-100.0
90.0,2238.0,2.39,6.7,15.82,7.44,-36.96,13.31,27.8,90.0-100.0
90.0,727.0,0.28,3.79,9.01,5.06,-15.5,7.93,27.79,90.0-100.0
90.0,974.0,-2.39,-6.08,6.88,-6.6,29.2,-11.95,27.79,90.0-100.0
90.0,816.0,0.76,-0.14,13.45,1.4,3.3,-1.88,27.8,90.0-100.0
90.0,2926.0,2.49,5.5,16.06,7.27,-28.07,9.75,27.79,90.0-100.0
90.0,206.0,2.19,6.45,14.87,7.33,-34.25,12.73,27.8,90.0-100.0
90.0,2542.0,-2.28,-6.88,5.34,-9.86,31.85,-12.88,27.79,90.0-100.0
90.0,1698.0,-1.68,-4.84,8.58,-4.75,23.46,-9.57,27.78,90.0-100.0
90.0,1787.0,1.6,1.65,14.79,3.57,-5.96,2.14,27.8,90.0-100.0
90.0,2189.0,2.46,6.33,16.23,7.64,-34.36,12.18,27.8,90.0-100.0
90.0,570.0,-2.67,-4.29,3.61,-7.94,21.22,-7.68,27.81,90.0-100.0
90.0,1955.0,-2.33,-7.15,5.77,-9.3,32.66,-13.38,27.78,90.0-100.0
90.0,96.0,-0.96,-3.02,10.48,-2.49,16.38,-7.02,27.78,90.0-100.0
90.0,1651.0,2.08,3.41,15.54,5.56,-14.76,5.05,27.77,90.0-100.0
90.0,0.0,-2.96,0.09,3.83,-0.71,5.39,0.18,27.8,90.0-100.0
90.0,1786.0,-2.28,-5.68,4.3,-9.65,25.63,-10.51,27.8,90.0-100.0
90.0,932.0,-2.22,-6.81,6.29,-7.74,31.35,-12.7,27.78,90.0-100.0
90.0,1749.0,-0.13,-1.02,12.23,0.36,9.1,-3.54,27.79,90.0-100.0
90.0,1520.0,0.19,3.93,9.17,5.44,-15.42,8.29,27.8,90.0-100.0
90.0,0.0,-3.47,-1.58,3.27,-3.88,11.39,-2.62,27.79,90.0-100.0
90.0,1744.0,-1.87,-6.73,5.02,-10.3,29.32,-12.15,27.78,90.0-100.0
90.0,608.0,-1.95,-5.69,7.42,-5.79,27.32,-11.12,27.77,90.0-100.0
90.0,1728.0,2.86,6.24,14.91,6.91,-35.33,12.68,27.79,90.0-100.0
90.0,0.0,-1.21,2.65,6.41,3.86,-6.33,5.4,27.78,90.0-100.0
90.0,2041.0,-3.38,-3.21,3.51,-6.67,17.25,-6.03,27.77,90.0-100.0
90.0,1461.0,-1.69,-7.38,5.44,-10.24,32.1,-13.43,27.78,90.0-100.0
90.0,1243.0,2.22,5.93,16.47,6.74,-34.36,11.51,27.8,90.0-100.0
90.0,1070.0,2.37,5.42,13.26,6.46,-29.21,11.52,27.79,90.0-100.0
90.0,128.0,-2.46,1.18,4.38,1.44,1.73,2.41,27.78,90.0-100.0
90.0,1908.0,-2.8,-4.79,4.02,-8.89,22.45,-8.76,27.77,90.0-100.0
90.0,0.0,1.91,3.64,15.52,5.9,-13.66,5.25,27.78,90.0-100.0
90.0,1629.0,2.47,6.38,16.19,6.79,-38.32,12.89,27.79,90.0-100.0
90.0,0.0,1.33,4.31,10.61,5.81,-20.88,9.45,27.79,90.0-100.0
90.0,2191.0,-3.41,-0.51,3.2,-1.64,9.32,-1.07,27.81,90.0-100.0
90.0,1879.0,0.03,-1.18,12.18,0.3,9.1,-3.75,27.8,90.0-100.0
90.0,1619.0,1.99,5.11,16.11,7.23,-22.67,8.38,27.8,90.0-100.0
90.0,1135.0,2.64,6.45,15.65,6.65,-38.14,13.06,27.8,90.0-100.0
90.0,564.0,0.06,2.76,7.88,4.1,-11.54,6.73,27.77,90.0-100.0
90.0,967.0,-1.51,-5.99,7.45,-6.6,26.12,-11.22,27.78,90.0-100.0
90.0,597.0,1.24,0.59,13.87,2.8,0.89,-0.05,27.79,90.0-100.0
90.0,1942.0,1.77,6.19,16.39,7.84,-30.28,10.94,27.79,90.0-100.0
90.0,224.0,2.49,5.97,14.33,6.24,-33.67,12.13,27.79,90.0-100.0
90.0,2189.0,-2.81,-6.93,5.76,-9.82,31.81,-13.2,27.82,90.0-100.0
90.0,847.0,-0.75,-4.41,9.2,-4.34,19.89,-8.82,27.81,90.0-100.0
90.0,1533.0,2.15,2.51,14.74,5.17,-8.13,3.28,27.79,90.0-100.0
90.0,306.0,1.6,6.83,16.49,7.93,-35.53,12.53,27.8,90.0-100.0
90.0,397.0,-2.73,-4.53,3.53,-7.68,24.22,-8.64,27.79,90.0-100.0
90.0,2081.0,-2.88,-6.86,6.27,-8.78,31.78,-12.89,27.78,90.0-100.0
90.0,362.0,0.11,-2.56,11.38,-2.05,11.48,-5.45,27.79,90.0-100.0
90.0,2671.0,2.62,4.26,15.25,6.92,-17.31,6.87,27.79,90.0-100.0
90.0,478.0,-3.14,-1.12,3.62,-2.34,9.06,-1.34,27.79,90.0-100.0
90.0,2249.0,-2.78,-5.55,4.51,-8.69,28.83,-10.86,27.78,90.0-100.0
90.0,624.0,-2.22,-6.29,7.09,-7.62,28.08,-12.05,27.79,90.0-100.0
90.0,2698.0,1.07,-0.81,13.42,0.57,3.23,-2.24,27.79,90.0-100.0
90.0,1475.0,0.67,2.7,7.82,3.24,-12.87,6.26,27.79,90.0-100.0
90.0,1241.0,-2.97,-2.81,2.89,-5.13,15.63,-4.61,27.8,90.0-100.0
90.0,1055.0,-3.0,-6.28,5.35,-8.92,32.43,-12.48,27.77,90.0-100.0
90.0,1674.0,-1.27,-4.99,8.45,-5.85,22.18,-9.89,27.79,90.0-100.0
90.0,2285.0,1.35,6.43,14.27,6.88,-32.28,12.5,27.8,90.0-100.0
90.0,0.0,-1.14,1.07,5.68,0.85,-3.38,3.36,27.78,90.0-100.0
90.0,2752.0,-2.41,-4.23,2.84,-7.22,21.69,-7.31,27.77,90.0-100.0
90.0,1249.0,-3.16,-6.72,6.16,-8.55,32.89,-12.95,27.77,90.0-100.0
90.0,2320.0,1.69,6.8,16.02,8.57,-34.36,12.62,27.76,90.0-100.0
90.0,1089.0,1.4,5.23,11.84,5.96,-25.28,10.19,27.76,90.0-100.0
90.0,977.0,-2.63,-0.48,4.28,-1.52,4.65,-0.09,27.79,90.0-100.0
90.0,2191.0,-2.29,-5.41,3.83,-8.52,26.79,-10.01,27.77,90.0-100.0
90.0,1223.0,2.86,4.05,15.43,6.53,-18.3,6.81,27.78,90.0-100.0
90.0,2058.0,1.49,7.03,15.91,8.16,-36.1,13.38,27.79,90.0-100.0
90.0,468.0,0.71,3.71,9.02,4.53,-16.59,7.97,27.78,90.0-100.0
90.0,2928.0,-3.11,-2.07,3.3,-4.28,11.94,-3.08,27.79,90.0-100.0
90.0,1502.0,0.94,-0.51,13.51,0.35,2.43,-1.94,27.77,90.0-100.0
90.0,2928.0,2.6,5.38,15.83,7.59,-26.31,9.58,27.77,90.0-100.0
90.0,703.0,1.62,6.65,15.04,7.58,-34.46,12.77,27.78,90.0-100.0
90.0,2466.0,-0.66,2.24,6.38,2.83,-7.16,4.88,27.76,90.0-100.0
90.0,2128.0,-1.88,-4.85,8.58,-5.03,23.14,-9.92,27.76,90.0-100.0
90.0,613.0,1.87,1.35,14.72,3.08,-6.05,1.65,27.77,90.0-100.0
90.0,2691.0,2.48,6.09,16.16,7.62,-33.13,11.78,27.79,90.0-100.0
90.0,263.0,1.49,5.75,13.19,6.88,-28.62,11.63,27.78,90.0-100.0
90.0,2534.0,-2.34,-6.97,5.75,-8.75,32.51,-13.09,27.78,90.0-100.0
90.0,1488.0,-1.1,-3.06,10.39,-2.63,16.5,-6.87,27.78,90.0-100.0
90.0,2642.0,2.11,3.26,15.38,5.32,-13.77,5.07,27.77,90.0-100.0
90.0,1523.0,2.62,6.45,16.12,7.29,-37.09,12.77,27.79,90.0-100.0
90.0,2688.0,-2.33,-5.59,4.31,-9.56,25.4,-10.35,27.79,90.0-100.0
90.0,1811.0,-2.21,-6.73,6.41,-7.8,30.77,-12.57,27.78,90.0-100.0
90.0,2927.0,-0.01,-1.14,12.31,-0.01,8.26,-3.49,27.8,90.0-100.0
90.0,2928.0,2.4,4.72,16.14,6.36,-23.51,8.24,27.78,90.0-100.0
90.0,909.0,-3.47,-1.65,3.34,-4.06,11.68,-2.88,27.78,90.0-100.0
90.0,2608.0,-1.87,-6.75,4.9,-10.35,29.67,-12.27,27.79,90.0-100.0
90.0,221.0,-2.17,-5.56,7.75,-5.65,27.14,-10.79,27.78,90.0-100.0
90.0,2765.0,1.07,0.96,13.88,2.83,-0.88,0.27,27.78,90.0-100.0
90.0,2270.0,-1.25,2.6,6.17,3.72,-5.76,5.22,27.79,90.0-100.0
90.0,2928.0,-3.3,-3.49,3.57,-7.04,17.86,-6.45,27.77,90.0-100.0
90.0,1725.0,-1.77,-7.26,5.34,-9.85,32.43,-13.52,27.79,90.0-100.0
90.0,688.0,-1.72,-3.66,9.68,-3.0,20.16,-8.07,27.79,90.0-100.0
90.0,2340.0,1.96,5.52,12.78,6.92,-27.7,11.38,27.78,90.0-100.0
90.0,0.0,-2.67,0.85,4.13,0.47,2.95,1.69,27.77,90.0-100.0
90.0,2506.0,-2.64,-5.24,4.17,-9.34,24.27,-9.32,27.79,90.0-100.0
90.0,1173.0,-1.91,-7.2,6.15,-8.64,31.59,-13.06,27.77,90.0-100.0
90.0,2282.0,2.74,6.34,16.01,6.86,-38.19,13.06,27.77,90.0-100.0
90.0,223.0,0.67,4.07,10.01,5.73,-18.21,8.87,27.78,90.0-100.0
90.0,944.0,-3.45,-1.1,3.23,-2.8,10.41,-2.12,27.8,90.0-100.0
90.0,2541.0,-1.16,2.26,11.53,2.74,-17.53,4.27,27.4,90.0-100.0
90.0,61.0,-1.8,-7.08,4.65,-11.49,20.1,-12.16,27.39,90.0-100.0
90.0,1710.0,0.92,8.04,13.11,14.03,-17.27,12.92,27.39,90.0-100.0
90.0,1645.0,-2.93,1.07,10.73,-0.4,-16.12,2.59,27.41,90.0-100.0
90.0,1007.0,-2.67,-7.23,3.91,-11.83,24.62,-11.93,27.42,90.0-100.0
90.0,1323.0,2.69,-1.22,10.84,-0.23,13.47,-0.41,27.44,90.0-100.0
90.0,0.0,-3.2,0.56,9.91,-1.99,-16.06,2.33,27.42,90.0-100.0
90.0,620.0,-2.55,-7.31,3.96,-11.66,26.24,-12.97,27.41,90.0-100.0
90.0,2066.0,1.6,-2.39,10.34,-1.64,16.58,-4.94,27.41,90.0-100.0
90.0,624.0,0.65,7.47,12.75,12.55,-16.69,10.73,27.4,90.0-100.0
90.0,654.0,-0.87,-6.4,5.44,-10.78,14.85,-11.72,27.41,90.0-100.0
90.0,636.0,-3.01,-5.0,7.23,-7.22,21.64,-10.33,27.42,90.0-100.0
90.0,972.0,0.51,3.32,11.72,9.39,4.11,4.52,27.42,90.0-100.0
90.0,0.0,3.63,6.88,16.7,7.93,-32.91,13.99,27.42,90.0-100.0
90.0,2032.0,-2.6,-6.99,4.7,-10.24,26.69,-11.35,27.43,90.0-100.0
90.0,466.0,-0.6,-2.56,10.06,-0.78,16.94,-4.5,27.41,90.0-100.0
90.0,773.0,1.43,5.16,13.73,8.19,-12.99,8.83,27.4,90.0-100.0
90.0,0.0,2.74,6.52,15.47,7.06,-30.45,12.07,27.41,90.0-100.0
90.0,638.0,-2.81,-6.85,4.92,-8.84,29.41,-13.24,27.42,90.0-100.0
90.0,289.0,-0.17,-1.77,10.71,0.25,15.17,-5.86,27.4,90.0-100.0
90.0,1855.0,1.77,5.14,14.46,7.61,-18.23,7.77,27.42,90.0-100.0
90.0,368.0,2.54,6.46,15.35,7.21,-31.36,12.04,27.42,90.0-100.0
90.0,2443.0,-2.71,-6.88,5.06,-8.82,29.29,-12.59,27.41,90.0-100.0
90.0,0.0,-0.96,-2.61,10.11,-1.47,17.08,-5.6,27.42,90.0-100.0
90.0,1072.0,1.81,4.04,14.6,6.04,-14.5,7.78,27.4,90.0-100.0
90.0,0.0,2.88,6.83,15.67,7.52,-33.64,13.98,27.42,90.0-100.0
90.0,1681.0,-1.96,-6.8,5.15,-9.66,27.52,-11.6,27.41,90.0-100.0
90.0,1113.0,-2.2,-4.18,8.16,-3.48,23.58,-9.17,27.41,90.0-100.0
90.0,1801.0,1.39,2.2,14.12,4.48,-5.27,2.21,27.41,90.0-100.0
90.0,1459.0,2.9,6.42,15.76,7.64,-33.39,11.61,27.41,90.0-100.0
90.0,295.0,-1.77,-5.83,4.52,-9.37,21.13,-10.73,27.42,90.0-100.0
90.0,1183.0,-2.6,-6.36,6.42,-6.8,29.4,-12.42,27.4,90.0-100.0
90.0,368.0,-0.17,-0.59,12.28,0.85,7.26,-2.43,27.42,90.0-100.0
90.0,2893.0,2.71,4.99,15.55,6.39,-24.22,9.98,27.41,90.0-100.0
90.0,0.0,-3.06,-3.2,4.17,-6.37,11.74,-4.1,27.42,90.0-100.0
90.0,1167.0,-1.72,-6.96,5.19,-9.15,29.62,-11.7,27.43,90.0-100.0
90.0,476.0,-2.32,-3.7,8.98,-3.03,21.83,-8.18,27.42,90.0-100.0
90.0,2318.0,1.77,2.11,14.71,3.79,-8.84,2.93,27.4,90.0-100.0
90.0,1191.0,-2.18,0.76,5.12,0.01,-0.18,0.95,27.39,90.0-100.0
90.0,1520.0,-1.84,-5.67,4.37,-9.42,20.64,-10.21,27.41,90.0-100.0
90.0,1917.0,-2.3,-6.47,6.15,-6.81,30.95,-13.09,27.4,90.0-100.0
90.0,1707.0,-0.8,-1.37,11.71,-0.45,9.79,-4.53,27.41,90.0-100.0
90.0,647.0,0.18,4.45,9.61,5.99,-16.24,8.61,27.42,90.0-100.0
90.0,378.0,-3.45,-1.81,4.21,-4.45,8.84,-2.18,27.4,90.0-100.0
90.0,1861.0,-1.39,-6.78,4.97,-10.01,27.15,-10.99,27.43,90.0-100.0
90.0,492.0,-2.59,-5.25,7.68,-5.18,27.17,-10.04,27.4,90.0-100.0
90.0,2559.0,1.55,6.72,14.86,8.08,-32.49,13.32,27.42,90.0-100.0
90.0,298.0,-0.77,2.7,6.56,3.5,-7.03,4.91,27.42,90.0-100.0
90.0,2085.0,-2.97,-3.92,3.91,-7.36,15.49,-6.96,27.42,90.0-100.0
90.0,1107.0,-1.53,-7.05,5.48,-8.9,30.83,-13.7,27.42,90.0-100.0
90.0,1871.0,2.94,5.87,15.95,7.33,-31.99,10.83,27.42,90.0-100.0
90.0,1919.0,0.82,6.0,12.95,7.59,-26.54,11.12,27.4,90.0-100.0
90.0,429.0,-2.19,0.87,4.87,0.25,1.12,1.91,27.41,90.0-100.0
90.0,1007.0,-2.31,-5.38,4.09,-9.31,20.96,-8.42,27.4,90.0-100.0
90.0,960.0,2.6,2.89,15.47,4.33,-15.13,5.65,27.42,90.0-100.0
90.0,2515.0,2.35,6.54,15.82,7.64,-35.04,13.5,27.4,90.0-100.0
90.0,0.0,0.65,4.95,10.62,6.48,-19.62,9.74,27.4,90.0-100.0
90.0,1182.0,-3.2,-0.85,4.11,-2.58,7.53,-1.5,27.42,90.0-100.0
90.0,2146.0,-0.55,-1.28,11.96,-0.52,8.35,-4.46,27.42,90.0-100.0
90.0,2624.0,3.05,4.25,15.76,5.9,-22.15,7.02,27.42,90.0-100.0
90.0,2113.0,1.76,6.82,15.31,8.17,-34.46,12.54,27.42,90.0-100.0
90.0,449.0,0.06,3.61,8.15,4.8,-12.47,6.93,27.41,90.0-100.0
90.0,1452.0,-2.45,-5.51,7.46,-5.73,27.37,-10.94,27.39,90.0-100.0
90.0,1535.0,0.67,-0.01,13.7,1.14,-0.22,-0.29,27.4,90.0-100.0
90.0,2267.0,3.13,5.32,15.78,7.01,-28.08,10.8,27.42,90.0-100.0
90.0,527.0,1.15,6.69,14.42,7.93,-31.38,13.24,27.41,90.0-100.0
90.0,2928.0,-1.8,-6.85,5.49,-9.27,30.57,-12.42,27.42,90.0-100.0
90.0,1072.0,-2.27,-4.23,8.85,-4.2,22.27,-9.43,27.4,90.0-100.0
90.0,2311.0,1.73,1.39,14.83,2.91,-8.06,1.48,27.4,90.0-100.0
90.0,2597.0,2.76,6.09,15.77,7.93,-32.2,11.17,27.41,90.0-100.0
90.0,1134.0,-2.43,-4.72,3.75,-8.32,19.23,-8.44,27.4,90.0-100.0
90.0,2030.0,-1.97,-6.91,5.87,-8.32,32.14,-13.12,27.41,90.0-100.0
90.0,1327.0,-1.59,-2.78,10.42,-2.55,15.36,-6.58,27.41,90.0-100.0
90.0,2928.0,2.62,2.83,15.48,4.39,-15.19,5.51,27.42,90.0-100.0
90.0,1557.0,-2.68,-0.12,4.32,-1.23,4.54,0.78,27.43,90.0-100.0
90.0,2245.0,-1.84,-5.79,4.16,-9.44,23.95,-9.6,27.42,90.0-100.0
90.0,1827.0,-2.51,-6.35,6.43,-6.92,31.78,-12.28,27.42,90.0-100.0
90.0,2378.0,-0.51,-1.4,12.03,-0.63,8.26,-4.26,27.41,90.0-100.0
90.0,2191.0,0.19,4.44,9.35,5.92,-16.11,7.9,27.4,90.0-100.0
90.0,0.0,-3.25,-1.72,3.81,-4.14,9.96,-3.2,27.39,90.0-100.0
90.0,2784.0,-1.64,-6.61,4.91,-9.77,28.22,-12.08,27.42,90.0-100.0
90.0,1906.0,-2.49,-5.53,7.45,-5.73,27.79,-11.22,27.42,90.0-100.0
90.0,2532.0,1.59,6.76,14.94,8.13,-33.33,13.21,27.41,90.0-100.0
90.0,880.0,-0.44,3.0,7.06,4.01,-9.06,6.38,27.41,90.0-100.0
90.0,2819.0,-3.05,-3.26,3.68,-6.52,14.81,-4.81,27.39,90.0-100.0
90.0,2269.0,-1.68,-6.97,5.41,-9.31,31.0,-12.36,27.41,90.0-100.0
90.0,2787.0,3.14,5.76,15.72,7.33,-30.4,11.09,27.39,90.0-100.0
90.0,2925.0,1.01,6.4,13.71,7.96,-29.3,11.93,27.41,90.0-100.0
90.0,941.0,-1.43,1.65,5.13,1.8,-1.5,2.69,27.41,90.0-100.0
90.0,2607.0,-2.62,-4.63,3.94,-8.47,19.75,-8.38,27.42,90.0-100.0
90.0,1091.0,2.16,2.05,15.33,3.57,-11.68,3.13,27.4,90.0-100.0
90.0,2928.0,2.8,6.31,15.67,7.75,-33.96,12.3,27.42,90.0-100.0
90.0,380.0,0.31,5.56,11.91,7.26,-22.99,10.91,27.4,90.0-100.0
90.0,2146.0,-2.45,0.04,4.25,-1.12,4.33,0.75,27.42,90.0-100.0
90.0,2359.0,-1.36,-1.99,11.08,-1.58,12.35,-5.02,27.43,90.0-100.0
90.0,1981.0,2.81,3.44,15.89,4.94,-19.05,6.48,27.42,90.0-100.0
90.0,2928.0,2.2,6.71,15.39,8.16,-35.09,13.09,27.41,90.0-100.0
90.0,1377.0,0.03,4.59,9.48,6.42,-15.82,8.47,27.41,90.0-100.0
90.0,1616.0,-2.57,-6.06,6.9,-6.31,30.46,-12.33,27.42,90.0-100.0
90.0,1249.0,-0.14,-0.67,12.69,0.07,4.69,-3.1,27.41,90.0-100.0
90.0,2559.0,3.18,4.49,16.02,5.7,-25.08,8.12,27.41,90.0-100.0
90.0,937.0,1.48,6.84,14.82,8.4,-32.98,12.97,27.41,90.0-100.0
90.0,2928.0,-1.16,-7.03,4.99,-9.82,29.21,-12.05,27.4,90.0-100.0
90.0,2685.0,-2.87,-4.86,8.09,-4.74,26.18,-9.96,27.43,90.0-100.0
90.0,2413.0,1.08,0.47,14.18,1.34,-3.56,0.49,27.41,90.0-100.0
90.0,2928.0,3.37,5.3,15.79,6.79,-29.58,10.67,27.42,90.0-100.0
90.0,541.0,-3.11,-3.82,4.07,-7.65,15.72,-6.15,27.39,90.0-100.0
90.0,2154.0,-1.21,-7.09,5.37,-8.86,31.52,-12.99,27.43,90.0-100.0
90.0,1282.0,-2.67,-3.48,9.32,-3.09,20.87,-8.65,27.43,90.0-100.0
90.0,2927.0,2.03,1.72,15.27,2.94,-11.27,2.37,27.43,90.0-100.0
90.0,1152.0,-1.55,1.41,4.78,0.97,0.53,2.11,27.44,90.0-100.0
90.0,1777.0,-2.38,-5.27,4.26,-9.45,19.84,-8.56,27.42,90.0-100.0
90.0,2927.0,-1.55,-6.9,5.89,-7.94,31.88,-12.71,27.42,90.0-100.0
90.0,2927.0,-1.86,-2.17,10.64,-1.71,14.27,-5.71,27.4,90.0-100.0
90.0,2550.0,0.18,5.44,11.28,7.47,-20.96,10.65,27.42,90.0-100.0
90.0,11.0,-2.81,-0.05,4.17,-1.76,5.55,0.03,27.39,90.0-100.0
90.0,2722.0,-1.73,-6.31,4.69,-10.08,24.02,-10.42,27.42,90.0-100.0
90.0,1603.0,-2.36,-6.27,6.64,-6.4,31.21,-12.37,27.41,90.0-100.0
90.0,2511.0,2.24,6.58,15.13,8.36,-34.19,12.7,27.41,90.0-100.0
90.0,458.0,-0.15,4.59,8.99,6.53,-14.53,8.12,27.41,90.0-100.0
90.0,2853.0,-3.39,-1.67,4.07,-4.6,10.12,-2.94,27.41,90.0-100.0
90.0,1259.0,-1.02,-7.04,5.08,-10.34,27.31,-11.8,27.4,90.0-100.0
90.0,1936.0,3.4,4.44,16.14,5.56,-26.36,8.8,27.39,90.0-100.0
90.0,1613.0,1.39,6.72,14.63,8.6,-32.43,13.2,27.43,90.0-100.0
90.0,41.0,-0.56,3.57,6.64,4.71,-7.56,6.41,27.44,90.0-100.0
90.0,2112.0,-3.52,-3.21,4.13,-7.18,14.18,-5.37,27.39,90.0-100.0
90.0,685.0,1.15,0.7,14.27,1.57,-4.59,0.32,27.4,90.0-100.0
90.0,2442.0,3.4,5.27,15.9,6.57,-30.4,10.3,27.4,90.0-100.0
90.0,144.0,0.52,6.49,13.65,8.63,-28.24,12.05,27.42,90.0-100.0
90.0,2927.0,-1.28,2.14,5.14,2.28,-1.38,3.34,27.42,90.0-100.0
90.0,2219.0,-2.69,-3.29,9.42,-2.77,20.71,-8.26,27.42,90.0-100.0
90.0,1142.0,2.12,1.7,15.46,2.79,-11.79,2.87,27.42,90.0-100.0
90.0,1984.0,3.23,5.96,15.72,7.5,-33.79,12.22,27.41,90.0-100.0
90.0,0.0,0.29,5.92,12.04,8.07,-23.64,11.51,27.42,90.0-100.0
90.0,2382.0,-1.64,-6.83,5.9,-7.7,32.22,-12.56,27.4,90.0-100.0
90.0,114.0,-1.69,-2.05,10.75,-1.52,14.11,-5.84,27.42,90.0-100.0
90.0,2928.0,2.75,2.98,15.89,4.3,-17.53,5.25,27.4,90.0-100.0
90.0,219.0,2.27,6.55,15.57,8.2,-34.86,12.66,27.4,90.0-100.0
90.0,1162.0,-1.61,-6.21,4.3,-9.86,24.74,-10.64,27.43,90.0-100.0
90.0,1350.0,-2.5,-6.32,6.71,-6.67,31.79,-12.45,27.41,90.0-100.0
90.0,1108.0,-0.41,-1.08,12.27,-0.55,6.54,-3.66,27.41,90.0-100.0
90.0,1939.0,3.28,4.13,16.08,5.63,-23.37,7.87,27.39,90.0-100.0
90.0,0.0,-3.55,-1.78,3.99,-4.57,10.58,-2.53,27.41,90.0-100.0
90.0,1855.0,-1.51,-6.67,4.82,-9.97,28.24,-11.31,27.39,90.0-100.0
90.0,0.0,-2.75,-5.45,7.59,-5.62,28.1,-10.89,27.4,90.0-100.0
90.0,2442.0,1.14,6.86,14.87,8.74,-33.18,13.29,27.42,90.0-100.0
90.0,309.0,0.17,3.31,6.89,4.27,-9.29,6.01,27.41,90.0-100.0
90.0,2253.0,-3.37,-3.14,3.84,-6.52,14.2,-5.34,27.41,90.0-100.0
90.0,880.0,-1.39,-7.05,5.39,-9.44,30.65,-12.8,27.38,90.0-100.0
90.0,769.0,3.24,5.31,15.99,6.95,-29.82,10.24,27.41,90.0-100.0
90.0,2087.0,0.75,6.53,13.9,8.23,-30.24,12.44,27.42,90.0-100.0
90.0,0.0,-0.79,2.27,5.48,2.63,-3.04,4.18,27.43,90.0-100.0
90.0,1572.0,-3.05,-4.3,3.81,-8.14,17.81,-6.74,27.41,90.0-100.0
90.0,7.0,1.77,1.53,15.1,2.73,-9.61,2.59,27.41,90.0-100.0
90.0,1450.0,2.99,5.82,16.01,7.23,-33.17,11.9,27.42,90.0-100.0
90.0,59.0,0.94,5.93,12.49,7.76,-25.51,11.34,27.4,90.0-100.0
90.0,751.0,-2.09,1.17,4.55,0.77,2.4,1.71,27.41,90.0-100.0
90.0,1151.0,-1.55,-2.65,10.3,-2.2,15.92,-6.97,27.41,90.0-100.0
90.0,0.0,2.45,2.66,15.65,4.18,-15.21,4.27,27.42,90.0-100.0
90.0,1613.0,2.44,6.37,15.65,7.93,-34.63,12.53,27.42,90.0-100.0
90.0,0.0,0.61,5.29,10.71,7.23,-20.24,10.07,27.43,90.0-100.0
90.0,1433.0,-1.93,-6.71,6.33,-7.41,31.46,-12.39,27.43,90.0-100.0
90.0,980.0,-0.95,-1.59,11.54,-1.01,10.35,-4.55,27.39,90.0-100.0
90.0,1055.0,2.82,3.68,16.04,5.05,-20.91,6.77,27.4,90.0-100.0
90.0,1443.0,2.0,6.58,15.35,7.93,-35.35,13.11,27.41,90.0-100.0
90.0,0.0,-1.69,-6.43,4.84,-10.2,26.19,-11.02,27.38,90.0-100.0
90.0,2032.0,-2.13,-6.03,6.87,-6.35,30.08,-11.86,27.4,90.0-100.0
90.0,141.0,-0.26,-0.59,12.79,0.19,4.62,-2.81,27.41,90.0-100.0
90.0,1965.0,3.05,4.5,16.28,5.9,-25.66,8.13,27.42,90.0-100.0
90.0,0.0,-3.7,-1.97,3.74,-4.83,12.49,-3.62,27.41,90.0-100.0
90.0,663.0,-1.41,-6.95,5.15,-10.03,28.51,-12.1,27.41,90.0-100.0
90.0,1794.0,-2.26,-5.24,7.68,-5.27,27.09,-10.7,27.37,90.0-100.0
90.0,1306.0,0.46,0.37,13.9,1.47,-1.18,-0.53,27.4,90.0-100.0
90.0,975.0,-0.32,3.13,6.49,4.4,-7.09,5.8,27.39,90.0-100.0
90.0,0.0,-3.55,-3.14,3.72,-6.55,15.39,-5.33,27.4,90.0-100.0
90.0,1792.0,-1.43,-7.22,5.4,-9.74,30.97,-12.74,27.4,90.0-100.0
90.0,0.0,-2.17,-4.15,8.58,-4.06,23.54,-9.34,27.41,90.0-100.0
90.0,1960.0,1.16,6.38,13.73,7.96,-29.53,12.24,27.41,90.0-100.0
90.0,0.0,-1.29,2.22,5.32,2.62,-2.19,3.89,27.4,90.0-100.0
90.0,2011.0,-3.14,-4.4,3.94,-8.41,18.44,-7.35,27.4,90.0-100.0
90.0,1157.0,-1.32,-7.3,5.8,-9.08,31.84,-13.08,27.39,90.0-100.0
90.0,989.0,2.95,5.84,15.83,7.18,-33.68,11.75,27.39,90.0-100.0
90.0,2039.0,0.75,5.91,12.44,7.87,-25.02,11.43,27.41,90.0-100.0
90.0,192.0,-2.24,1.19,4.45,0.86,2.92,1.92,27.41,90.0-100.0
90.0,1613.0,-2.57,-5.38,4.34,-9.59,20.96,-8.82,27.42,90.0-100.0
90.0,448.0,2.42,2.65,15.81,4.04,-15.59,4.64,27.4,90.0-100.0
90.0,2886.0,2.75,6.26,15.65,7.69,-35.07,12.51,27.38,90.0-100.0
90.0,910.0,0.47,5.38,10.85,7.56,-20.47,10.24,27.39,90.0-100.0
90.0,1351.0,-2.92,0.07,3.92,-1.26,6.74,-0.26,27.42,90.0-100.0
90.0,1227.0,-1.42,-1.58,11.56,-0.95,10.83,-5.04,27.4,90.0-100.0
90.0,1435.0,2.76,3.46,16.22,4.59,-20.41,6.18,27.4,90.0-100.0
90.0,2473.0,2.3,6.41,15.45,7.61,-35.67,12.94,27.4,90.0-100.0
90.0,0.0,0.29,4.67,9.34,6.54,-15.8,9.0,27.43,90.0-100.0
90.0,1520.0,-2.06,-6.27,6.84,-6.75,30.45,-11.93,27.4,90.0-100.0
90.0,0.0,-0.63,-0.77,12.48,0.15,6.2,-3.08,27.42,90.0-100.0
90.0,2083.0,3.15,4.16,16.45,5.46,-25.05,7.83,27.41,90.0-100.0
90.0,495.0,2.07,6.58,14.72,8.39,-34.45,13.0,27.43,90.0-100.0
90.0,1529.0,-1.25,-6.96,5.22,-10.43,27.55,-11.98,27.38,90.0-100.0
90.0,1393.0,-2.18,-5.51,7.35,-5.41,28.31,-11.2,27.39,90.0-100.0
90.0,362.0,0.17,0.11,13.52,1.23,0.69,-1.31,27.4,90.0-100.0
90.0,2838.0,3.17,4.83,16.49,6.05,-28.74,9.49,27.4,90.0-100.0
90.0,0.0,-3.76,-2.63,3.69,-6.14,14.4,-4.52,27.41,90.0-100.0
90.0,690.0,-1.17,-7.2,5.32,-10.21,29.84,-12.57,27.4,90.0-100.0
90.0,893.0,-2.4,-4.63,8.11,-4.48,25.78,-10.01,27.4,90.0-100.0
90.0,2396.0,1.04,0.81,14.47,1.95,-4.81,0.46,27.41,90.0-100.0
90.0,1530.0,-0.97,2.67,5.78,3.73,-3.98,4.79,27.39,90.0-100.0
90.0,753.0,-3.37,-3.66,3.69,-7.34,17.17,-6.41,27.4,90.0-100.0
90.0,2297.0,-1.29,-7.2,5.55,-9.28,31.43,-13.02,27.38,90.0-100.0
90.0,1296.0,-2.21,-3.9,9.11,-3.62,21.77,-8.9,27.42,90.0-100.0
90.0,2447.0,1.04,6.27,13.2,8.13,-28.48,12.1,27.4,90.0-100.0
90.0,806.0,-1.69,1.89,5.02,2.15,-0.54,3.52,27.4,90.0-100.0
90.0,1884.0,-2.82,-4.52,4.03,-8.58,19.42,-7.46,27.39,90.0-100.0
90.0,1703.0,-1.38,-7.15,5.71,-8.84,31.96,-12.82,27.39,90.0-100.0
90.0,1679.0,2.9,6.03,15.8,7.3,-34.17,11.95,27.4,90.0-100.0
90.0,2880.0,0.8,5.84,12.27,7.78,-24.53,11.2,27.39,90.0-100.0
90.0,640.0,-2.3,1.01,4.44,0.53,2.97,1.48,27.41,90.0-100.0
90.0,1567.0,-2.42,-5.33,4.17,-9.19,21.78,-8.97,27.4,90.0-100.0
90.0,1011.0,2.3,2.59,15.81,4.1,-15.6,4.27,27.38,90.0-100.0
90.0,2928.0,2.55,6.28,15.65,7.7,-35.09,12.54,27.39,90.0-100.0
90.0,523.0,0.67,5.35,11.18,7.27,-21.25,10.51,27.41,90.0-100.0
90.0,2160.0,-2.78,0.19,3.96,-0.72,6.28,0.44,27.39,90.0-100.0
90.0,2336.0,-1.27,-1.98,11.31,-1.62,11.83,-5.36,27.4,90.0-100.0
90.0,1851.0,2.67,3.28,16.08,4.82,-19.07,5.95,27.4,90.0-100.0
90.0,2928.0,2.35,6.65,15.39,8.04,-35.64,12.92,27.38,90.0-100.0
90.0,0.0,0.35,4.94,10.03,6.82,-17.8,9.34,27.4,90.0-100.0
90.0,2529.0,-2.05,-6.47,6.48,-7.21,31.44,-12.56,27.42,90.0-100.0
90.0,1500.0,-0.89,-1.32,12.17,-0.84,8.03,-4.27,27.41,90.0-100.0
90.0,2928.0,3.09,3.76,16.3,5.41,-22.61,7.0,27.39,90.0-100.0
90.0,2723.0,2.09,6.73,15.18,8.28,-35.32,13.17,27.39,90.0-100.0
90.0,783.0,-1.44,-6.66,4.74,-10.26,26.92,-11.2,27.39,90.0-100.0
90.0,1616.0,-2.37,-5.95,6.93,-6.11,30.52,-11.72,27.41,90.0-100.0
90.0,976.0,-0.41,-0.68,12.94,0.03,3.78,-2.58,27.4,90.0-100.0
90.0,2927.0,3.32,4.1,16.48,5.3,-26.28,8.19,27.39,90.0-100.0
90.0,0.0,-3.51,-1.73,3.72,-4.52,11.42,-3.08,27.39,90.0-100.0
90.0,2306.0,-1.13,-6.96,5.19,-10.21,28.24,-11.92,27.38,90.0-100.0
90.0,1744.0,-2.41,-5.37,7.39,-5.42,28.56,-11.17,27.4,90.0-100.0
90.0,1906.0,0.16,-0.1,13.61,0.61,0.22,-1.53,27.4,90.0-100.0
90.0,2730.0,-0.52,3.71,7.22,5.23,-8.74,6.55,27.39,90.0-100.0
90.0,864.0,-3.37,-2.65,3.71,-6.05,13.54,-4.41,27.41,90.0-100.0
90.0,988.0,-1.15,-7.13,5.29,-9.94,29.96,-12.33,27.41,90.0-100.0
90.0,1826.0,-2.71,-4.76,8.03,-4.58,26.33,-10.16,27.41,90.0-100.0
90.0,2928.0,1.3,6.65,14.11,8.57,-31.33,12.89,27.4,90.0-100.0
90.0,45.0,-0.97,3.07,6.16,4.24,-5.3,5.55,27.4,90.0-100.0
90.0,2895.0,-3.29,-3.38,3.86,-7.19,15.88,-5.6,27.39,90.0-100.0
90.0,2657.0,-1.04,-7.27,5.55,-9.53,31.07,-12.83,27.42,90.0-100.0
90.0,2311.0,3.41,5.33,15.96,6.82,-31.55,10.59,27.4,90.0-100.0
90.0,2311.0,0.88,6.55,13.51,8.6,-29.12,12.22,27.37,90.0-100.0
90.0,0.0,-1.37,2.26,5.39,2.68,-2.1,3.83,27.4,90.0-100.0
90.0,2887.0,-2.88,-4.3,3.85,-8.41,18.07,-7.05,27.38,90.0-100.0
90.0,830.0,1.82,1.25,15.32,2.24,-10.37,2.08,27.38,90.0-100.0
90.0,2928.0,3.32,5.65,15.71,7.24,-32.84,11.54,27.4,90.0-100.0
90.0,1106.0,0.28,6.35,12.76,8.43,-25.9,11.87,27.4,90.0-100.0
90.0,2033.0,-1.74,1.52,4.72,1.25,0.92,2.72,27.42,90.0-100.0
90.0,2541.0,-2.4,-3.07,9.88,-2.95,18.03,-7.55,27.39,90.0-100.0
90.0,1144.0,2.48,1.69,15.91,2.74,-14.23,3.2,27.39,90.0-100.0
90.0,2765.0,3.09,6.09,15.34,8.08,-33.21,11.9,27.4,90.0-100.0
90.0,0.0,0.03,6.13,11.9,8.42,-22.73,11.02,27.39,90.0-100.0
90.0,2768.0,-1.63,-6.69,5.89,-7.34,32.72,-12.76,27.4,90.0-100.0
90.0,1979.0,-2.03,-2.4,10.6,-2.22,14.32,-6.52,27.41,90.0-100.0
90.0,2922.0,2.83,2.29,16.2,3.21,-17.51,4.52,27.39,90.0-100.0
90.0,1283.0,2.83,6.35,15.19,8.1,-33.94,12.53,27.4,90.0-100.0
90.0,445.0,-1.86,-5.92,4.32,-10.08,22.36,-9.32,27.41,90.0-100.0
90.0,1972.0,-2.13,-6.38,6.28,-6.9,32.39,-12.22,27.4,90.0-100.0
90.0,589.0,-1.5,-1.8,11.41,-1.74,10.2,-5.14,27.41,90.0-100.0
90.0,2927.0,3.31,2.91,16.3,4.11,-20.49,5.8,27.42,90.0-100.0
90.0,110.0,-2.82,-0.7,4.2,-2.81,7.18,-1.04,27.41,90.0-100.0
90.0,2031.0,-1.46,-6.32,4.37,-9.68,25.43,-10.59,27.4,90.0-100.0
90.0,1583.0,-2.68,-5.94,6.84,-6.02,31.91,-12.13,27.39,90.0-100.0
90.0,2470.0,-0.68,-1.24,12.25,-1.1,5.56,-3.97,27.39,90.0-100.0
90.0,2928.0,0.02,4.8,9.11,6.48,-15.02,8.62,27.41,90.0-100.0
90.0,2118.0,-3.32,-1.6,4.02,-4.46,9.53,-2.21,27.38,90.0-100.0
90.0,2191.0,-1.09,-6.54,4.61,-9.88,27.6,-11.05,27.41,90.0-100.0
90.0,0.0,-3.18,-5.4,7.37,-5.5,30.48,-11.37,27.39,90.0-100.0
